File: charts/20230727/TRANSFORM/TGA/Cs-ZCFA.txt
6.66667E-4;22.89108;6.474337;40.01065;60.00839;0.07446069
0.1041666;22.96554;6.471914;39.98369;59.98560;0.07414844
0.2125000;23.21716;6.467786;39.99630;59.99739;0.07346528
0.3208333;23.66910;6.463862;40.03111;59.99776;0.07188103
0.4291667;24.31416;6.461110;39.99014;59.97616;0.07038745
0.5375000;25.11505;6.457439;39.98628;60.00684;0.06869018
0.6458332;26.03464;6.453657;40.02089;59.99996;0.06783970
0.7541666;27.03832;6.450051;40.02722;59.99722;0.06720575
0.8625000;28.08632;6.446044;40.00320;59.98054;0.06382895
0.9708334;29.16756;6.441868;39.99754;59.97940;0.06305736
1.079166;30.25309;6.437306;40.02194;59.99630;0.06421966
1.187500;31.33725;6.433008;40.03055;60.02300;0.06533018
1.295834;32.41458;6.428604;39.99300;59.99940;0.06586920
1.404167;33.48009;6.423764;39.99942;59.98438;0.06601671
1.512500;34.53500;6.419621;40.01736;60.00026;0.06608791
1.620833;35.58386;6.414822;40.01042;59.99010;0.06590796
1.729166;36.63148;6.410370;39.99844;59.99038;0.06547869
1.837500;37.67091;6.406241;40.00034;60.01182;0.06483308
1.945834;38.70938;6.401612;40.01594;59.99731;0.06397710
2.054166;39.74570;6.396888;39.99724;59.97216;0.06308662
2.162500;40.78485;6.392978;39.98578;60.00060;0.06226343
2.270833;41.82595;6.388688;40.02859;60.02236;0.06154022
2.379166;42.86702;6.384519;40.01820;59.99018;0.06080280
2.487500;43.91494;6.380670;39.99766;59.99863;0.06013468
2.595833;44.96074;6.376514;39.99238;60.00234;0.05984941
2.704166;46.01000;6.372472;40.00974;60.00937;0.05973776
2.812500;47.06125;6.368379;39.98137;60.00250;0.05954968
2.920834;48.11773;6.364340;39.99203;59.99312;0.05943482
3.029167;49.17484;6.360329;39.99822;59.97458;0.05935440
3.137500;50.23420;6.356264;39.97056;60.00589;0.05935034
3.245834;51.29570;6.352251;39.99779;59.97886;0.05925274
3.354167;52.35980;6.348309;40.00630;59.99620;0.05940400
3.462500;53.42441;6.344020;39.98842;60.00601;0.05958793
3.570834;54.49217;6.339898;40.01260;60.02622;0.06007238
3.679166;55.55940;6.335934;39.98275;59.99043;0.06069410
3.787500;56.62945;6.331662;40.02562;60.00237;0.06149043
3.895833;57.70048;6.327355;40.00898;60.00202;0.06216831
4.004166;58.77349;6.323010;39.99926;60.02512;0.06298984
4.112500;59.84828;6.318490;40.04398;60.01819;0.06393762
4.220833;60.92318;6.314075;40.02225;60.02180;0.06484696
4.329167;61.99840;6.309570;40.00395;59.98384;0.06588020
4.437500;63.07579;6.304982;40.04784;60.03046;0.06723294
4.545833;64.15140;6.300304;40.01872;60.00890;0.06868176
4.654167;65.22958;6.295512;39.97912;59.98023;0.07036032
4.762500;66.30869;6.290597;39.98120;59.97198;0.07238884
4.870834;67.39019;6.285395;39.99904;60.01729;0.07461148
4.979166;68.46800;6.280113;39.98443;59.99620;0.07716544
5.087500;69.55030;6.274804;40.00019;60.02700;0.07970728
5.195833;70.63016;6.269026;40.00242;59.98127;0.08247407
5.304168;71.71299;6.263248;39.98882;59.96265;0.08551215
5.412500;72.79465;6.257014;39.99325;59.99063;0.08882155
5.520834;73.87818;6.250954;39.98518;59.99676;0.09280121
5.629166;74.95930;6.244326;39.98738;59.98237;0.09658745
5.737500;76.04444;6.237480;39.99853;60.01720;0.1009352
5.845832;77.12675;6.230108;40.00532;59.99660;0.1048641
5.954168;78.20795;6.222582;39.98333;60.00209;0.1093552
6.062500;79.29306;6.214855;39.99435;59.97813;0.1141009
6.170832;80.37718;6.206445;40.00525;60.00739;0.1186044
6.279168;81.46038;6.198392;40.01625;60.01588;0.1230566
6.387500;82.54526;6.189460;40.01561;60.01549;0.1278957
6.495834;83.62934;6.179948;39.99844;59.94458;0.1325721
6.604166;84.71453;6.170678;39.99148;59.92762;0.1371659
6.712500;85.80011;6.160938;39.99966;60.00712;0.1417649
6.820832;86.88634;6.150816;39.99778;59.99756;0.1459960
6.929168;87.97164;6.140299;39.99303;59.97869;0.1498289
7.037500;89.05503;6.129601;39.96863;60.01600;0.1537513
7.145834;90.14034;6.118639;39.99624;59.98945;0.1573469
7.254166;91.22522;6.107387;40.00544;60.00092;0.1604455
7.362500;92.31225;6.096015;40.00726;60.00472;0.1631438
7.470834;93.39850;6.084370;40.00470;59.96069;0.1654679
7.579168;94.48338;6.072606;40.03374;60.00240;0.1672706
7.687500;95.56728;6.060614;40.01378;59.98236;0.1683839
7.795832;96.65381;6.048740;40.01246;59.99842;0.1689740
7.904166;97.73930;6.036741;39.99086;59.97124;0.1688407
8.012500;98.82549;6.024734;40.02024;60.01382;0.1680728
8.120834;99.91045;6.012934;40.02126;60.01862;0.1667046
8.229168;100.9977;6.001194;39.99782;59.98457;0.1647869
8.337500;102.0826;5.989581;40.00895;59.99090;0.1620824
8.445832;103.1668;5.978272;39.99548;59.97657;0.1587759
8.554168;104.2533;5.967068;40.03020;59.99087;0.1549987
8.662500;105.3380;5.956236;40.02714;60.01620;0.1505508
8.770832;106.4213;5.945715;39.99813;59.98545;0.1454716
8.879166;107.5093;5.935722;39.98346;60.01016;0.1400336
8.987500;108.5936;5.926012;40.01561;59.99148;0.1342520
9.095834;109.6786;5.916678;39.98403;60.01912;0.1283130
9.204166;110.7640;5.907993;40.00870;60.01132;0.1221919
9.312500;111.8502;5.899652;39.97998;59.99682;0.1162169
9.420834;112.9318;5.891690;40.03565;59.97934;0.1102561
9.529166;114.0166;5.884136;39.98896;60.00666;0.1044100
9.637500;115.1013;5.877164;39.96781;60.02522;0.09882103
9.745834;116.1848;5.870388;39.99727;60.00713;0.09347688
9.854168;117.2671;5.863996;39.99496;60.02620;0.08838556
9.962500;118.3520;5.858074;39.96649;59.99639;0.08359350
10.07083;119.4348;5.852472;39.98447;59.94158;0.07916599
10.17917;120.5187;5.847107;39.98032;60.02142;0.07520593
10.28750;121.6029;5.841904;39.98486;60.00629;0.07123200
10.39583;122.6876;5.837193;39.98286;59.97796;0.06777732
10.50416;123.7697;5.832604;39.98216;59.98717;0.06465006
10.61250;124.8550;5.828163;40.01488;60.04184;0.06147766
10.72084;125.9406;5.823962;39.98359;60.00113;0.05871438
10.82916;127.0240;5.820044;39.98091;59.97766;0.05611609
10.93750;128.1112;5.816130;39.97850;60.00288;0.05355591
11.04584;129.1941;5.812506;39.99794;59.99921;0.05102429
11.15416;130.2784;5.808800;39.99394;60.01576;0.04857437
11.26250;131.3622;5.805740;39.98150;59.99356;0.04648348
11.37084;132.4464;5.802406;39.93819;59.99055;0.04464928
11.47917;133.5330;5.799491;40.03651;59.99812;0.04293641
11.58750;134.6188;5.796680;39.97944;60.00402;0.04135383
11.69583;135.7014;5.793742;40.00688;60.00888;0.04007368
11.80417;136.7862;5.790967;40.02979;60.01533;0.03890091
11.91250;137.8707;5.788162;40.00394;60.01493;0.03774454
12.02083;138.9582;5.785682;40.01109;60.03350;0.03658880
12.12916;140.0404;5.783181;39.98891;59.97793;0.03531352
12.23750;141.1255;5.780638;40.00637;59.98851;0.03415556
12.34584;142.2118;5.778374;39.99460;60.00181;0.03307322
12.45416;143.2970;5.776059;40.00911;59.97498;0.03186384
12.56250;144.3812;5.773851;39.98581;60.02300;0.03074566
12.67084;145.4660;5.771722;40.00114;60.00220;0.02969732
12.77916;146.5514;5.769534;39.99387;59.98972;0.02871746
12.88750;147.6372;5.767886;39.98035;59.98008;0.02782083
12.99583;148.7225;5.765890;39.98605;59.98022;0.02695984
13.10417;149.8070;5.763832;40.02008;60.02187;0.02633892
13.21250;150.8922;5.762262;40.00126;60.00082;0.02571545
13.32083;151.9769;5.760295;39.98442;60.01824;0.02501425
13.42917;153.0605;5.758728;39.97600;60.02184;0.02395730
13.53750;154.1467;5.756786;40.03816;59.98962;0.02307932
13.64583;155.2297;5.755326;39.99414;59.99920;0.02274785
13.75417;156.3166;5.753796;39.99150;60.02735;0.02216661
13.86250;157.4034;5.752556;40.01095;59.97889;0.02144285
13.97084;158.4876;5.750991;39.99460;59.99566;0.02065891
14.07916;159.5720;5.749123;39.99287;60.02758;0.02004518
14.18750;160.6568;5.747713;40.00400;60.01344;0.01972241
14.29584;161.7406;5.746700;39.98837;59.97803;0.01948932
14.40416;162.8255;5.745337;40.00518;59.98383;0.01900581
14.51250;163.9098;5.744316;39.98134;60.00977;0.01858408
14.62083;164.9914;5.742734;39.99672;59.99190;0.01858223
14.72917;166.0748;5.741309;39.98194;60.01915;0.01872362
14.83750;167.1580;5.740045;40.00671;60.01262;0.01871854
14.94583;168.2406;5.738799;40.02582;59.99990;0.01858900
15.05417;169.3250;5.737424;40.01021;59.97959;0.01811750
15.16250;170.4087;5.736260;39.97839;60.01441;0.01769855
15.27083;171.4948;5.734898;39.96921;59.99465;0.01732526
15.37917;172.5760;5.733665;39.98608;60.00745;0.01696165
15.48750;173.6586;5.732516;39.99834;59.97607;0.01682063
15.59584;174.7416;5.731373;39.97092;60.00172;0.01650368
15.70416;175.8267;5.730369;39.98675;59.99939;0.01614655
15.81250;176.9096;5.729236;40.00789;59.97166;0.01610895
15.92084;177.9915;5.727881;40.01521;59.97201;0.01616270
16.02917;179.0737;5.726890;40.01684;59.98072;0.01626331
16.13750;180.1571;5.726008;39.99959;59.99246;0.01612285
16.24583;181.2390;5.724542;39.99313;59.98940;0.01589752
16.35416;182.3234;5.723448;39.99516;60.02068;0.01556228
16.46250;183.4048;5.722240;39.97474;60.01404;0.01526563
16.57083;184.4860;5.721398;39.99460;59.96520;0.01509302
16.67917;185.5701;5.720350;40.00250;60.02204;0.01463127
16.78750;186.6541;5.719316;39.97920;60.00371;0.01435692
16.89584;187.7381;5.718440;40.01204;59.99692;0.01421276
17.00417;188.8190;5.717332;39.97914;60.01382;0.01414414
17.11250;189.9023;5.716347;39.99988;59.98622;0.01410359
17.22083;190.9853;5.715445;39.98504;60.03996;0.01385164
17.32916;192.0674;5.714330;39.98996;60.00844;0.01363065
17.43750;193.1504;5.713464;39.99772;60.02128;0.01330381
17.54584;194.2321;5.712350;40.02200;60.02422;0.01309067
17.65417;195.3142;5.711722;39.98838;60.02980;0.01286863
17.76250;196.3975;5.710745;40.00632;59.98370;0.01267294
17.87083;197.4815;5.709843;40.01404;60.01418;0.01257178
17.97916;198.5626;5.708914;40.00564;59.99214;0.01237936
18.08750;199.6474;5.708109;39.99655;60.02649;0.01231166
18.19583;200.7306;5.707193;39.95788;60.03738;0.01219654
18.30417;201.8123;5.706318;40.00239;59.98906;0.01196315
18.41250;202.8957;5.705608;40.00184;59.96978;0.01165955
18.52084;203.9758;5.704814;39.99530;59.98007;0.01141431
18.62917;205.0587;5.703884;40.01522;59.99560;0.01140001
18.73750;206.1409;5.703213;40.01756;60.02184;0.01126129
18.84583;207.2264;5.702524;39.98524;60.01614;0.01112640
18.95416;208.3066;5.701576;40.01428;60.02429;0.01095692
19.06250;209.3905;5.700795;39.98080;60.00383;0.01075504
19.17084;210.4738;5.699989;40.00876;60.00634;0.01079960
19.27917;211.5576;5.699392;40.00348;60.00164;0.01078775
19.38750;212.6397;5.698644;40.00606;59.97903;0.01081008
19.49583;213.7230;5.698000;40.00335;59.99212;0.01081892
19.60416;214.8060;5.697113;39.98892;60.01360;0.01077296
19.71250;215.8873;5.696302;39.99841;59.98162;0.01070947
19.82083;216.9700;5.695525;39.99259;59.99500;0.01061719
19.92917;218.0515;5.694810;39.99880;60.01586;0.01045499
20.03750;219.1341;5.694032;40.02066;60.01165;0.01023796
20.14584;220.2163;5.693572;39.99853;59.99629;0.01002556
20.25417;221.2981;5.692627;40.02533;59.98359;.009858206
20.36250;222.3803;5.692030;40.02550;59.99877;.009742694
20.47083;223.4620;5.691229;40.00376;60.00572;.009750509
20.57916;224.5444;5.690678;40.00880;60.00410;.009727366
20.68750;225.6274;5.689921;40.04302;60.02080;.009561005
20.79584;226.7099;5.689316;39.99400;60.00951;.009519916
20.90417;227.7920;5.688582;40.01863;59.97290;.009644359
21.01250;228.8764;5.688038;40.00213;59.97178;.009781218
21.12083;229.9592;5.687410;39.98539;60.01140;.009813844
21.22916;231.0402;5.686651;39.99132;60.00430;.009792972
21.33750;232.1260;5.685789;39.98705;59.99082;.009692236
21.44583;233.2052;5.685110;40.00644;60.02615;.009707569
21.55417;234.2873;5.684512;39.99683;60.01004;.009703266
21.66250;235.3700;5.683941;39.98802;59.97620;.009632468
21.77084;236.4539;5.683270;39.97790;59.98075;.009517862
21.87917;237.5387;5.682588;40.01290;59.99185;.009409950
21.98750;238.6206;5.681829;40.02210;59.99359;.009352111
22.09583;239.7027;5.681164;39.99228;59.99340;.009213078
22.20416;240.7876;5.680492;39.99860;60.00772;.008884098
22.31250;241.8728;5.679970;40.00394;59.99636;.008644049
22.42084;242.9561;5.679370;40.00345;59.96638;.008411456
22.52917;244.0404;5.678690;40.00454;59.98028;.008291426
22.63750;245.1240;5.678350;39.99429;59.99150;.008285172
22.74583;246.2073;5.677622;39.97058;60.00984;.008373343
22.85416;247.2903;5.677030;40.00262;60.03958;.008397326
22.96250;248.3723;5.676440;40.01466;59.99608;.008460731
23.07083;249.4563;5.675828;40.01013;59.98059;.008490551
23.17917;250.5373;5.675253;40.01190;59.99981;.008484613
23.28750;251.6192;5.674698;40.00898;59.96691;.008451144
23.39584;252.7026;5.674065;39.98686;60.00406;.008431016
23.50417;253.7847;5.673513;40.00578;60.00935;.008298550
23.61250;254.8682;5.672872;40.02475;59.98681;.008168224
23.72083;255.9513;5.672340;40.00659;60.00639;.007985288
23.82916;257.0332;5.671670;39.98742;60.00907;.007815559
23.93750;258.1178;5.671232;39.98835;59.97090;.007606894
24.04584;259.2014;5.670687;40.03429;60.00254;.007449384
24.15417;260.2828;5.670174;39.99250;60.02158;.007247441
24.26250;261.3646;5.669615;40.02097;59.97865;.007178944
24.37083;262.4472;5.669262;40.00789;60.02207;.007241735
24.47916;263.5306;5.668684;40.00339;59.96368;.007447169
24.58750;264.6119;5.668178;39.97531;60.00305;.007541438
24.69583;265.6957;5.667668;40.01113;59.99170;.007617126
24.80417;266.7785;5.667080;39.98970;60.00405;.007575054
24.91250;267.8612;5.666486;40.00736;60.01539;.007457170
25.02084;268.9436;5.665942;40.00742;59.99140;.007311451
25.12917;270.0275;5.665485;40.02546;59.98900;.007258422
25.23750;271.1094;5.665105;39.98650;59.96748;.007211964
25.34583;272.1920;5.664526;39.99721;60.00057;.007278026
25.45416;273.2754;5.664052;39.97430;59.99419;.007408559
25.56250;274.3572;5.663609;40.00555;60.01247;.007507506
25.67084;275.4406;5.662910;39.98916;59.95738;.007534986
25.77917;276.5244;5.662344;39.99162;60.00166;.007501221
25.88750;277.6077;5.661787;40.02416;59.93674;.007397559
25.99583;278.6894;5.661382;40.02399;60.00347;.007275140
26.10416;279.7702;5.660957;39.99571;59.97600;.007076472
26.21250;280.8557;5.660408;40.00205;59.98214;.006945324
26.32084;281.9380;5.659942;40.02057;59.98518;.006951860
26.42916;283.0201;5.659440;40.01330;59.99474;.006996751
26.53750;284.1049;5.658887;39.97446;59.97786;.007065528
26.64584;285.1865;5.658509;39.98042;59.99712;.006894501
26.75417;286.2685;5.657902;39.99747;59.97812;.006780035
26.86250;287.3518;5.657509;39.98188;59.98254;.006609200
26.97083;288.4331;5.656978;39.99167;60.01189;.006458355
27.07916;289.5173;5.656576;39.99933;59.98722;.006412082
27.18750;290.5994;5.656137;39.98822;60.02446;.006402581
27.29584;291.6820;5.655744;39.97500;60.01066;.006393606
27.40417;292.7664;5.655357;39.99728;60.00436;.006398604
27.51250;293.8464;5.654802;40.02652;59.97086;.006581422
27.62083;294.9291;5.654249;39.96613;60.02762;.006854030
27.72916;296.0106;5.653874;39.99766;60.00504;.006876088
27.83750;297.0942;5.653424;39.98734;59.99220;.006950036
27.94584;298.1766;5.652859;40.02370;60.02313;.006915711
28.05416;299.2580;5.652247;40.00388;60.00579;.006935050
28.16250;300.3415;5.651955;39.97294;60.00028;.006923120
28.27084;301.4235;5.651406;39.99663;59.98596;.006833822
28.37917;302.5072;5.650976;40.01788;60.00318;.006619726
28.48750;303.5898;5.650430;39.98377;59.99000;.006482339
28.59583;304.6728;5.649942;40.00114;60.00369;.006498790
28.70416;305.7544;5.649570;39.99222;59.97593;.006459430
28.81250;306.8382;5.649176;40.00096;59.98228;.006453175
28.92084;307.9206;5.648637;39.98596;59.98546;.006460410
29.02917;309.0036;5.648238;39.98984;60.02874;.006451868
29.13750;310.0846;5.647787;40.00979;59.98302;.006440902
29.24583;311.1656;5.647302;39.99964;59.99240;.006319610
29.35416;312.2484;5.646750;39.99116;60.01488;.006206274
29.46250;313.3329;5.646349;39.99128;60.02268;.006222838
29.57084;314.4140;5.645943;39.99541;59.98830;.006157503
29.67916;315.4957;5.645641;39.98607;59.99028;.006172669
29.78750;316.5786;5.645190;40.00303;59.99308;.006185727
29.89584;317.6607;5.644606;40.00860;59.98695;.006252074
30.00417;318.7424;5.644361;39.99494;59.98931;.006405340
30.11250;319.8252;5.643802;39.99654;59.97059;.006503748
30.22083;320.9074;5.643382;39.99329;60.00513;.006521370
30.32916;321.9917;5.643002;39.97571;59.98128;.006409242
30.43750;323.0740;5.642418;40.00780;59.98976;.006320580
30.54584;324.1558;5.641926;39.97317;60.00928;.006231541
30.65417;325.2399;5.641512;40.00800;59.99873;.006154668
30.76250;326.3222;5.641130;40.01537;60.01918;.006115263
30.87083;327.4048;5.640757;40.01180;60.00118;.005893822
30.97916;328.4893;5.640380;39.99834;60.03268;.005798916
31.08750;329.5718;5.639884;39.97976;59.96738;.005808080
31.19584;330.6572;5.639465;40.03284;59.98654;.005856306
31.30416;331.7382;5.639102;40.01944;60.01002;.005886459
31.41250;332.8222;5.638660;40.00086;59.98846;.005985362
31.52084;333.9044;5.638272;40.00588;59.98955;.006061578
31.62917;334.9867;5.637912;39.98576;60.02947;.006085976
31.73750;336.0708;5.637480;40.00215;60.02149;.005991206
31.84583;337.1500;5.636921;39.99008;59.96941;.005877867
31.95416;338.2320;5.636442;39.99057;59.96712;.005696111
32.06250;339.3147;5.636085;40.01567;60.02039;.005638909
32.17084;340.3970;5.635862;39.98036;60.00512;.005602520
32.27917;341.4790;5.635447;40.01904;59.99678;.005573950
32.38750;342.5639;5.635071;39.99004;59.98198;.005642686
32.49584;343.6456;5.634720;39.99002;60.03115;.005819685
32.60417;344.7284;5.634136;40.00824;59.98862;.005932765
32.71250;345.8102;5.633821;39.99131;60.00388;.005933429
32.82084;346.8937;5.633307;40.01989;60.01911;.005825900
32.92916;347.9764;5.632924;40.00797;60.00620;.005724458
33.03750;349.0586;5.632543;39.99441;59.99049;.005524600
33.14583;350.1413;5.632178;39.97285;60.00056;.005430190
33.25416;351.2244;5.631812;40.01117;59.96580;.005284320
33.36250;352.3067;5.631385;40.00795;60.00904;.005310536
33.47083;353.3883;5.631050;40.02672;60.02802;.005361432
33.57916;354.4724;5.630663;39.99318;60.00115;.005419590
33.68750;355.5558;5.630391;39.99476;60.01515;.005414868
33.79584;356.6389;5.629929;39.98296;59.98545;.005413798
33.90417;357.7213;5.629524;39.98420;60.00141;.005430826
34.01250;358.8038;5.629090;39.99625;60.02341;.005333796
34.12084;359.8898;5.628741;40.00788;59.99126;.005237714
34.22917;360.9743;5.628410;40.02254;60.00934;.004966907
34.33750;362.0585;5.628072;40.01468;60.01557;.004897520
34.44584;363.1444;5.627754;39.97842;60.00198;.004930502
34.55416;364.2306;5.627426;40.01704;59.98860;.005081191
34.66250;365.3160;5.627148;39.98436;60.01313;.005127081
34.77083;366.4011;5.626694;40.02309;60.01436;.005107605
34.87916;367.4855;5.626256;40.02289;60.01214;.005146160
34.98750;368.5710;5.625866;40.00960;60.02598;.005174444
35.09583;369.6566;5.625528;39.98755;60.01198;.005134278
35.20416;370.7390;5.625284;39.98998;59.98666;.005019084
35.31250;371.8256;5.624838;39.99506;59.99930;.004977027
35.42084;372.9106;5.624468;39.99104;60.02198;.004957842
35.52917;373.9940;5.624158;39.98566;60.01110;.004888670
35.63750;375.0785;5.623876;39.98002;59.99180;.004900908
35.74584;376.1640;5.623440;39.95683;59.99537;.004830144
35.85417;377.2462;5.623057;40.02420;59.99846;.004846816
35.96250;378.3320;5.622859;39.99672;60.02809;.004783428
36.07084;379.4171;5.622535;40.02942;60.02854;.004753979
36.17916;380.5014;5.622199;39.97856;59.98658;.004719708
36.28750;381.5836;5.621680;40.01498;60.00316;.004720954
36.39583;382.6683;5.621464;40.01310;59.98081;.004792266
36.50416;383.7523;5.621240;40.03136;59.99978;.004692966
36.61250;384.8358;5.620776;40.00085;59.98735;.004565635
36.72083;385.9211;5.620541;40.02061;60.00574;.004475087
36.82916;387.0044;5.620070;39.99392;59.97395;.004561680
36.93750;388.0900;5.619888;39.99994;60.01018;.004556322
37.04584;389.1702;5.619568;39.99678;59.98090;.004418709
37.15417;390.2544;5.619244;40.00160;59.96718;.004343388
37.26250;391.3380;5.618842;40.00098;60.00212;.004215460
37.37084;392.4231;5.618550;40.01022;59.99460;.004288840
37.47917;393.5068;5.618385;40.00404;59.94410;.004360672
37.58750;394.5915;5.618093;39.96220;60.01028;.004478067
37.69584;395.6736;5.617868;40.01969;59.98476;.004562603
37.80416;396.7585;5.617324;39.99548;60.00593;.004642076
37.91250;397.8408;5.617075;40.02639;59.97776;.004645113
38.02083;398.9262;5.616707;40.00914;60.02570;.004566940
38.12916;400.0081;5.616348;40.00466;59.99794;.004427344
38.23750;401.0937;5.616070;40.02610;60.00196;.004118194
38.34583;402.1778;5.615882;39.99295;59.99574;.004035730
38.45416;403.2612;5.615614;39.99055;59.95518;.003966316
38.56250;404.3444;5.615251;40.00618;59.99558;.004080719
38.67084;405.4283;5.615121;39.98812;59.99630;.004171785
38.77917;406.5130;5.614684;40.00742;59.98404;.004076906
38.88750;407.5956;5.614476;39.96977;59.97428;.004056938
38.99584;408.6765;5.614029;39.97537;59.99758;.004175372
39.10417;409.7630;5.613775;39.98801;59.99674;.004189247
39.21250;410.8461;5.613756;40.00266;60.00400;.004144358
39.32084;411.9306;5.613310;39.98969;59.99096;.004182380
39.42916;413.0148;5.612893;39.98998;60.02055;.004176877
39.53750;414.0974;5.612734;40.01712;59.98750;.004134734
39.64583;415.1807;5.612368;40.00100;59.98743;.004028048
39.75416;416.2638;5.612084;40.02006;59.98298;.003767954
39.86250;417.3471;5.611730;40.02784;59.99113;.003389826
39.97083;418.4296;5.611548;39.99814;59.98650;.003369023
40.07916;419.5154;5.611430;39.98174;60.00180;.003643526
40.18750;420.5998;5.611166;39.98288;59.99140;.004058763
40.29584;421.6831;5.611036;39.99744;59.97270;.004351639
40.40417;422.7697;5.610691;40.00220;59.97670;.004539728
40.51250;423.8512;5.610151;40.01437;59.97657;.004506030
40.62084;424.9374;5.609604;40.00956;60.03384;.004439542
40.72917;426.0210;5.609334;39.99519;60.02838;.004279580
40.83750;427.1035;5.609172;39.99678;59.99936;.003884372
40.94584;428.1881;5.609203;39.96790;59.96873;.003413587
41.05416;429.2714;5.608780;40.00776;59.91374;.003192258
41.16250;430.3530;5.608460;39.97838;59.98814;.003156039
41.27083;431.4372;5.608277;39.97683;60.01415;.003240250
41.37916;432.5226;5.608184;39.98612;59.98597;.003077037
41.48750;433.6088;5.607688;40.01083;60.00361;.002844850
41.59583;434.6902;5.607714;39.98535;59.98984;.002880168
41.70416;435.7738;5.607543;39.99428;60.00014;.003161199
41.81250;436.8586;5.607527;39.98973;59.98547;.003417542
41.92084;437.9443;5.607149;39.97777;59.98550;.003435447
42.02917;439.0277;5.606882;40.03054;59.98240;.003622544
42.13750;440.1120;5.606412;40.00816;60.02334;.003521476
42.24584;441.1976;5.606158;40.01086;59.99550;.003525634
42.35417;442.2816;5.606052;39.98472;60.00340;.003441012
42.46250;443.3660;5.605880;39.99336;59.98452;.003309554
42.57084;444.4503;5.605649;39.98944;60.01038;.003173350
42.67916;445.5340;5.605395;40.01024;60.01381;.003151444
42.78750;446.6190;5.605060;40.01155;59.99407;.003394676
42.89583;447.7018;5.604863;40.00710;59.99626;.003727188
43.00416;448.7850;5.604544;40.00850;59.94410;.003790622
43.11250;449.8695;5.604580;39.99997;59.99193;.003873003
43.22083;450.9527;5.604097;40.00159;59.99492;.003886416
43.32916;452.0374;5.603559;39.98239;60.01030;.003933634
43.43750;453.1213;5.603510;39.98587;59.99119;.003900853
43.54584;454.2072;5.603306;40.02750;59.99861;.003928668
43.65417;455.2913;5.603059;40.02063;59.97044;.003704880
43.76250;456.3756;5.602734;40.00274;60.01826;.003527850
43.87084;457.4598;5.602496;39.97358;60.01328;.003616094
43.97917;458.5426;5.602202;40.01238;59.99172;.003744060
44.08750;459.6258;5.601968;39.97667;59.97007;.003913400
44.19584;460.7104;5.601724;40.01826;60.01163;.003941050
44.30416;461.7959;5.601404;40.01656;60.01850;.003958015
44.41250;462.8794;5.601151;40.03476;59.99564;.003753044
44.52083;463.9626;5.600624;40.02159;60.04743;.003728818
44.62916;465.0466;5.600557;40.01170;60.04126;.003663210
44.73750;466.1316;5.600280;39.99127;60.00810;.003509748
44.84583;467.2166;5.600237;39.97170;59.97028;.003402822
44.95416;468.2992;5.599838;39.95916;60.00881;.003315509
45.06250;469.3836;5.599572;40.00975;60.01786;.003331896
45.17084;470.4675;5.599390;40.00154;60.04560;.003260844
45.27917;471.5524;5.599102;40.02124;60.00732;.003100179
45.38750;472.6352;5.598855;39.98409;60.01000;.003074631
45.49584;473.7208;5.598662;39.97670;59.98258;.003113638
45.60417;474.8070;5.598599;40.02246;60.00264;.003198230
45.71250;475.8892;5.598301;40.00471;60.00621;.003223482
45.82084;476.9730;5.598018;39.98553;59.98882;.003385542
45.92916;478.0589;5.597738;40.00628;59.99861;.003581049
46.03750;479.1418;5.597560;39.98384;59.99140;.003796775
46.14583;480.2266;5.597408;40.01447;59.99004;.003818709
46.25416;481.3116;5.597051;40.01881;59.99743;.003809072
46.36250;482.3953;5.596702;39.99994;59.97710;.003734372
46.47083;483.4799;5.596499;39.98134;59.98414;.003799458
46.57916;484.5624;5.596222;40.01758;59.98752;.003815413
46.68750;485.6467;5.596028;39.99190;60.02562;.003699298
46.79584;486.7304;5.595720;40.00032;60.00066;.003660228
46.90417;487.8150;5.595421;40.00820;60.00366;.003617883
47.01250;488.8962;5.595185;40.00426;60.02458;.003578674
47.12084;489.9826;5.595010;40.01022;59.98668;.003618542
47.22917;491.0660;5.594676;39.98874;59.99029;.003525946
47.33750;492.1500;5.594477;40.01991;59.98511;.003516986
47.44584;493.2339;5.594268;40.00735;60.01320;.003446607
47.55416;494.3176;5.593916;39.97917;59.99424;.003362046
47.66250;495.4039;5.593662;39.97750;60.04960;.003267437
47.77083;496.4867;5.593457;40.04439;60.00669;.003261288
47.87916;497.5706;5.593316;39.99748;60.02064;.003253934
47.98750;498.6544;5.593100;40.01085;60.02873;.003293413
48.09583;499.7390;5.592862;39.95972;59.98465;.003307029
48.20416;500.8250;5.592614;39.97069;59.99158;.003375623
48.31250;501.9074;5.592394;40.01553;59.97702;.003322190
48.42084;502.9897;5.592072;39.99224;60.01434;.003328490
48.52917;504.0739;5.591873;39.98242;60.00040;.003288779
48.63750;505.1558;5.591518;40.00944;60.05298;.003302647
48.74584;506.2390;5.591454;39.99222;59.99503;.003419254
48.85417;507.3246;5.591199;39.98500;60.00799;.003510012
48.96250;508.4080;5.590960;39.99209;60.00043;.003788154
49.07084;509.4952;5.590704;39.98705;60.00118;.003948872
49.17916;510.5760;5.590379;39.99712;60.00314;.003831648
49.28750;511.6606;5.590118;40.00474;60.00854;.003815430
49.39583;512.7442;5.589766;39.98544;59.96916;.003647634
49.50416;513.8289;5.589539;39.99436;60.00078;.003458110
49.61250;514.9132;5.589455;39.98779;59.95566;.003351446
49.72083;515.9963;5.589055;40.00447;60.00495;.003464746
49.82916;517.0828;5.588970;39.99444;60.03184;.003589282
49.93750;518.1670;5.588642;39.98374;59.99830;.003708894
50.04584;519.2484;5.588476;40.00229;60.00902;.003827142
50.15417;520.3338;5.587958;40.04710;59.96308;.003840038
50.26250;521.4172;5.587694;39.96480;60.03251;.003826968
50.37084;522.4998;5.587518;40.02896;59.99976;.003640780
50.47917;523.5839;5.587402;39.98664;59.99900;.003553062
50.58750;524.6704;5.587000;39.98074;60.03284;.003420245
50.69584;525.7525;5.586778;40.00356;59.96082;.003387370
50.80416;526.8390;5.586697;39.99187;59.99664;.003423996
50.91250;527.9242;5.586360;39.98118;60.02246;.003395800
51.02083;529.0070;5.586030;39.98198;60.01621;.003257604
51.12916;530.0928;5.585850;40.00416;60.00135;.003287210
51.23750;531.1771;5.585606;40.01711;59.99809;.003292954
51.34583;532.2598;5.585438;39.96519;60.01988;.003208200
51.45417;533.3446;5.585292;39.96012;59.99386;.003288239
51.56250;534.4310;5.584928;40.00881;59.98780;.003399318
51.67083;535.5139;5.584741;40.00690;60.00735;.003502080
51.77917;536.5984;5.584586;39.99277;60.00524;.003634322
51.88750;537.6826;5.584082;39.98330;59.99229;.003733590
51.99584;538.7664;5.583972;39.99782;59.98360;.003319540
52.10417;539.8511;5.583808;39.99726;59.97534;.003446698
52.21250;540.9380;5.583408;39.98060;59.99747;.003738445
52.32084;542.0184;5.583063;39.99178;59.99526;.003582094
52.42916;543.1059;5.583236;39.97838;59.99758;.003523106
52.53750;544.1890;5.582824;39.98643;59.99116;.003517078
52.64582;545.2692;5.582148;39.98160;60.01094;.003453526
52.75416;546.3541;5.582480;39.98937;60.01768;.003647285
52.86250;547.4403;5.581912;39.96429;60.00639;.003986511
52.97082;548.5255;5.581776;40.02588;59.98992;.003894243
53.07918;549.6106;5.581584;40.02374;59.97774;.003439112
53.18750;550.6948;5.581090;39.97916;59.99986;.003503550
53.29582;551.7761;5.580752;40.02304;60.00538;.003443072
53.40418;552.8596;5.580454;39.99902;59.99861;.003335339
53.51250;553.9434;5.580519;40.00840;60.00709;.003451902
53.62084;555.0274;5.580480;39.99967;60.03526;.003703611
53.72918;556.1123;5.580022;40.02275;59.97274;.003933950
53.83750;557.1961;5.579934;39.99320;59.96668;.004101545
53.94584;558.2817;5.579304;39.97919;59.99918;.004297545
54.05416;559.3640;5.578918;40.01438;59.96656;.004313472
54.16250;560.4481;5.578623;39.98385;59.99217;.004072548
54.27082;561.5318;5.578548;40.00830;59.99343;.003936234
54.37916;562.6151;5.578290;40.00602;59.98795;.003533540
54.48750;563.7010;5.577993;40.00843;60.00062;.003249739
54.59582;564.7869;5.577746;40.04442;60.00128;.003295982
54.70418;565.8694;5.577430;40.00154;60.03560;.003511442
54.81250;566.9544;5.577250;39.98118;59.97480;.003441880
54.92082;568.0400;5.577154;40.00476;59.97129;.003302301
55.02918;569.1240;5.576866;39.98884;59.98985;.003266879
55.13750;570.2085;5.576458;40.02098;60.02771;.003259745
55.24584;571.2912;5.576347;40.01188;60.00148;.003329714
55.35418;572.3757;5.576206;39.99278;60.02120;.003306739
55.46250;573.4588;5.575806;39.99060;59.98722;.003254663
55.57084;574.5432;5.575620;40.00462;60.00186;.003246277
55.67916;575.6293;5.575390;40.00348;59.99728;.003314954
55.78750;576.7126;5.575271;39.99669;59.97986;.003162356
55.89582;577.7979;5.574966;40.00395;60.00250;.002851383
56.00416;578.8813;5.574648;40.00067;60.00105;.002878279
56.11250;579.9672;5.574522;39.98042;59.98550;.002923945
56.22082;581.0489;5.574402;40.00246;60.01642;.002904258
56.32918;582.1348;5.574387;39.99114;59.96644;.002903463
56.43750;583.2180;5.573961;40.02160;59.98778;.002812705
56.54582;584.2996;5.573663;40.00311;60.01328;.002593927
56.65418;585.3828;5.573579;40.00110;60.01648;.002495872
56.76250;586.4678;5.573290;40.00162;60.02858;.002412116
56.87084;587.5480;5.573032;40.00735;59.99967;.002058527
56.97918;588.6360;5.573425;40.00315;60.01368;.001612382
57.08750;589.7182;5.573043;40.00006;60.01144;.001341210
57.19584;590.8055;5.572807;40.00886;59.98360;.001082313
57.30416;591.8892;5.572708;40.01930;59.96790;.001121816
57.41250;592.9750;5.572822;40.00906;60.00400;.001351466
57.52082;594.0621;5.572826;40.00586;60.00838;9.94598E-4
57.62916;595.1458;5.572750;39.98415;60.01970;9.20150E-4
57.73750;596.2294;5.572512;39.97654;60.01262;.001044499
57.84582;597.3099;5.572393;40.01794;59.99889;.001196753
57.95418;598.3955;5.572476;40.01928;59.98011;.001207513
58.06250;599.4776;5.572426;40.00078;59.99228;.001254929
58.17082;600.5622;5.572191;40.00164;59.98675;.001241064
58.27918;601.6461;5.572195;39.98979;60.00290;.001445794
58.38750;602.7302;5.572120;40.00824;60.00551;.001547453
58.49584;603.8164;5.571870;40.01239;60.01109;.001285592
58.60418;604.8982;5.571872;40.00949;60.01230;.001172773
58.71250;605.9816;5.571482;40.01264;60.00804;.001305306
58.82084;607.0652;5.571724;39.99748;59.99448;.001341744
58.92916;608.1491;5.571826;40.01482;59.98402;.001103071
59.03750;609.2337;5.571545;40.00347;59.99430;9.27674E-4
59.14582;610.3171;5.571356;40.00066;60.00121;9.16583E-4
59.25416;611.4034;5.571174;40.00466;60.01878;9.04196E-4
59.36250;612.4876;5.571410;39.98878;60.01959;5.59207E-4
59.47082;613.5700;5.571406;40.00552;59.98985;2.64537E-4
59.57918;614.6570;5.571203;39.99619;59.99443;2.86009E-5
59.68750;615.7421;5.571260;40.00562;59.99259;2.51215E-4
59.79582;616.8282;5.571510;39.99970;59.99334;8.24678E-4
59.90418;617.9116;5.571278;40.00674;59.98770;.001224570
60.01250;618.9961;5.571250;40.00390;60.00226;.001284688
60.12084;620.0806;5.571074;40.02407;59.99849;.001334884
60.22918;621.1638;5.570710;39.97268;59.99665;.001502202
60.33750;622.2473;5.570544;40.00160;59.98920;.001169281
60.44584;623.3302;5.570764;40.02007;60.05684;7.09664E-4
60.55416;624.4164;5.570868;39.96206;60.01062;5.79626E-4
60.66250;625.5000;5.570618;39.99619;60.02288;4.22668E-4
60.77082;626.5820;5.570571;40.01114;60.02005;7.25689E-4
60.87916;627.6640;5.570877;40.01085;59.97835;9.95319E-4
60.98750;628.7478;5.570408;40.01390;59.96614;.001449134
61.09582;629.8320;5.570385;39.98958;59.99496;.001629839
61.20418;630.9156;5.570170;39.99812;59.96750;.001722173
61.31250;631.9998;5.570264;39.97314;60.00684;.001671162
61.42082;633.0850;5.569887;40.00374;60.03050;.001246858
61.52918;634.1691;5.569701;40.00099;59.98229;.001081861
61.63750;635.2537;5.569814;39.98930;59.98664;9.14645E-4
61.74584;636.3388;5.569840;40.01644;60.02965;8.93980E-4
61.85418;637.4246;5.569882;40.00314;59.99624;8.83412E-4
61.96250;638.5103;5.569764;40.03586;60.01340;9.74099E-4
62.07084;639.5930;5.569574;40.01300;60.00778;.001263844
62.17916;640.6768;5.569500;39.97595;59.98202;.001391190
62.28750;641.7590;5.569360;39.98969;60.00466;.001459391
62.39582;642.8425;5.569278;39.98222;60.02692;.001480818
62.50416;643.9288;5.569230;39.98737;59.98548;.001194232
62.61250;645.0135;5.569050;40.00826;59.99334;9.73564E-4
62.72082;646.0979;5.569125;39.98930;60.02860;9.75627E-4
62.82918;647.1808;5.568649;40.00306;60.00890;.001206007
62.93750;648.2660;5.569102;40.01434;59.99744;.001502382
63.04582;649.3520;5.568987;39.98283;60.01155;.001544984
63.15418;650.4354;5.568871;40.00810;60.00110;.001411728
63.26250;651.5180;5.568415;40.00050;60.00601;.001266520
63.37084;652.6024;5.568274;39.99594;60.02099;.001535278
63.47918;653.6855;5.568214;40.00454;60.00184;.001479034
63.58750;654.7694;5.568560;39.99102;60.03831;.001341067
63.69584;655.8530;5.568359;40.02809;59.99911;.001133106
63.80416;656.9364;5.568108;40.00874;60.00206;9.79557E-4
63.91250;658.0210;5.568091;39.99740;60.01066;.001077839
64.02084;659.1048;5.567860;40.02143;59.97955;.001456542
64.12916;660.1869;5.567859;39.99774;60.04092;.001424966
64.23750;661.2714;5.567938;40.00124;60.01115;.001322001
64.34582;662.3570;5.567848;40.00964;60.03174;.001489694
64.45418;663.4418;5.567522;39.99764;60.00437;.001498580
64.56250;664.5247;5.567351;40.01681;59.96845;.001594002
64.67082;665.6112;5.567359;39.99275;60.00859;.001749888
64.77918;666.6970;5.567158;39.98547;59.98668;.001640204
64.88750;667.7826;5.567116;39.99766;59.98675;.001312946
64.99584;668.8650;5.567115;40.00324;59.97398;.001093044
65.10416;669.9478;5.566895;40.00309;59.99305;.001080408
65.21250;671.0310;5.566708;39.98234;60.01256;7.62331E-4
65.32082;672.1157;5.566684;39.95965;59.98590;4.20791E-4
65.42918;673.2009;5.566922;39.99211;59.98203;2.01682E-4
65.53750;674.2822;5.566566;39.99045;60.01140;2.81825E-5
65.64584;675.3674;5.566812;39.97561;59.99337;3.89752E-4
65.75416;676.4537;5.566959;40.00723;59.97158;6.00619E-4
65.86250;677.5378;5.566806;39.99646;60.01008;7.05270E-4
65.97082;678.6212;5.566762;40.01672;59.99930;9.30766E-4
66.07918;679.7050;5.566239;39.97979;59.98868;.001879364
66.18750;680.7891;5.566376;40.00935;60.00581;.002275418
66.29582;681.8726;5.566572;40.00985;59.99897;.002154842
66.40418;682.9562;5.566316;39.98894;60.01660;.002299742
66.51250;684.0406;5.565586;39.99933;59.98726;.002420372
66.62084;685.1239;5.565642;40.03372;60.03182;.002348542
66.72916;686.2093;5.565844;40.01198;60.01674;.001517052
66.83750;687.2950;5.565451;39.97983;60.04516;4.86460E-4
66.94582;688.3769;5.565074;39.99914;59.96110;-4.0926E-4
67.05418;689.4600;5.565070;40.00261;59.97257;-4.0039E-4
67.16250;690.5424;5.566014;40.02506;60.00416;1.71625E-4
67.27084;691.6262;5.565940;40.00311;60.00652;4.41722E-4
67.37916;692.7100;5.565968;39.95694;60.02146;7.21754E-4
67.48750;693.7908;5.565650;39.98420;59.99174;.001518820
67.59582;694.8743;5.565160;40.00675;60.00313;.002771066
67.70418;695.9575;5.564892;40.00728;59.99382;.003056234
67.81250;697.0437;5.565030;40.00630;60.00226;.003002526
67.92082;698.1285;5.564846;40.02338;59.98678;.002783280
68.02918;699.2139;5.564366;40.01400;59.97592;.002748326
68.13750;700.2986;5.564204;39.99441;59.99701;.003245194
68.24584;701.3835;5.564138;39.99878;59.99624;.003462994
68.35416;702.4684;5.564072;40.00212;60.01195;.003459044
68.46250;703.5522;5.563701;40.01317;60.03658;.003639342
68.57082;704.6376;5.562918;40.02066;60.01225;.003703552
68.67918;705.7200;5.563026;39.99421;59.98076;.003717110
68.78750;706.8085;5.563015;39.97997;60.02027;.003163648
68.89584;707.8920;5.562301;39.99666;59.97937;.002833787
69.00416;708.9770;5.562153;39.97400;59.99503;.002614562
69.11250;710.0590;5.562061;39.97216;60.01190;.002747072
69.22082;711.1429;5.562460;39.99527;60.01226;.002689332
69.32918;712.2264;5.561856;40.03139;59.97710;.002736266
69.43750;713.3101;5.561501;39.99062;60.01358;.003264129
69.54582;714.3955;5.561398;39.97682;59.99510;.003743182
69.65418;715.4786;5.561262;39.98329;59.99070;.003962079
69.76250;716.5630;5.560726;39.97328;59.96404;.003714009
69.87084;717.6458;5.560445;39.99236;59.98808;.003481345
69.97916;718.7334;5.560240;39.98878;60.01024;.003483091
70.08750;719.8169;5.560040;40.02170;59.98368;.003211069
70.19582;720.9020;5.559937;40.03904;59.97951;.002811700
70.30418;721.9868;5.559648;39.99864;59.99682;.002848774
70.41250;723.0688;5.559549;40.01106;60.01234;.003128370
70.52084;724.1530;5.559256;39.97798;59.99020;.003426660
70.62916;725.2369;5.559174;40.00552;60.02320;.003415550
70.73750;726.3219;5.558789;39.99004;59.99215;.003386550
70.84582;727.4082;5.558474;40.01110;59.98796;.003757334
70.95418;728.4944;5.558066;39.97458;59.99224;.003949032
71.06250;729.5765;5.558142;39.99886;60.00434;.004037960
71.17082;730.6631;5.558056;40.00400;59.98762;.004018326
71.27918;731.7455;5.557331;39.97739;59.98120;.004196204
71.38750;732.8266;5.556963;40.01666;59.99624;.004661218
71.49584;733.9103;5.556837;40.02150;60.00422;.004971191
71.60416;734.9955;5.556472;39.99726;60.02400;.005006086
71.71250;736.0772;5.556012;40.02344;59.98242;.004685058
71.82082;737.1642;5.555534;39.99565;59.98262;.004327090
71.92918;738.2485;5.555316;40.00413;60.01991;.004206504
72.03750;739.3292;5.555039;39.98267;60.00727;.003711162
72.14584;740.4170;5.554737;39.99198;59.97006;.002967685
72.25416;741.5040;5.554800;39.99661;60.00168;.002826128
72.36250;742.5886;5.554480;39.98814;59.97742;.003163773
72.47082;743.6712;5.554336;40.00620;60.00740;.003373928
72.57918;744.7551;5.554448;40.01187;59.99456;.003648598
72.68750;745.8382;5.553945;40.00544;60.01400;.004230202
72.79582;746.9241;5.553152;40.00708;60.00882;.004427563
72.90418;748.0063;5.553076;39.97763;59.99662;.004339697
73.01250;749.0906;5.552969;40.01470;60.01026;.004276868
73.12084;750.1710;5.552372;40.00664;60.01236;.003985020
73.22916;751.2602;5.552084;39.98269;59.99832;.003567137
73.33750;752.3460;5.552266;39.98718;60.01653;.003692144
73.44582;753.4319;5.551866;39.99930;59.97834;.003656139
73.55418;754.5138;5.551426;40.00063;59.98516;.003469295
73.66250;755.5978;5.551180;40.01648;60.03090;.003588471
73.77084;756.6774;5.551035;40.02195;60.00240;.003858916
73.87916;757.7606;5.550723;40.01800;60.00068;.003745635
73.98750;758.8426;5.550658;39.98733;60.00813;.003586197
74.09582;759.9248;5.550257;40.00377;60.01221;.003675884
74.20418;761.0081;5.549926;39.98606;60.02034;.003887634
74.31250;762.0919;5.549664;40.00294;59.97284;.003844806
74.42082;763.1749;5.549541;39.99682;60.00449;.003939246
74.52918;764.2568;5.549190;40.01154;60.00117;.003929068
74.63750;765.3379;5.548750;40.00813;60.00965;.003697225
74.74584;766.4222;5.548562;40.01467;60.03035;.003402103
74.85416;767.5058;5.548493;39.99746;59.98868;.003190372
74.96250;768.5902;5.547944;39.98611;59.98408;.003352740
75.07082;769.6762;5.548063;40.01420;59.99023;.003352619
75.17918;770.7575;5.547856;39.98250;59.98544;.003448543
75.28750;771.8430;5.547865;40.00116;60.01560;.003636036
75.39584;772.9247;5.546937;40.02891;60.00953;.003192117
75.50416;774.0074;5.546826;39.98718;59.97879;.002836948
75.61250;775.0928;5.546768;40.01895;60.00289;.002876860
75.72082;776.1800;5.546206;39.99790;59.98530;.002497732
75.82918;777.2639;5.546698;40.00044;59.98364;.001660992
75.93750;778.3475;5.547306;40.00244;59.96676;.002097597
76.04582;779.4310;5.545628;39.98952;59.99842;.002964609
76.15418;780.5171;5.546371;39.97196;59.98961;.003622589
76.26250;781.5995;5.546396;40.00432;59.97630;.004223946
76.37084;782.6852;5.545406;40.01936;59.98298;.004362854
76.47916;783.7674;5.544773;40.02245;59.99816;.003774853
76.58750;784.8542;5.544514;40.00625;59.98050;.003850005
76.69582;785.9372;5.544468;39.99719;60.02206;.003366858
76.80418;787.0181;5.544404;39.99613;59.99642;.002726882
76.91250;788.1072;5.544213;40.02726;60.00338;.001886051
77.02084;789.1931;5.544020;39.99258;59.97654;.001749637
77.12916;790.2753;5.543872;39.99717;60.03540;.001905275
77.23750;791.3591;5.543712;40.00124;60.02105;.002430344
77.34582;792.4420;5.543730;40.01035;60.00958;.002843527
77.45418;793.5272;5.543634;39.99437;59.97663;.003375170
77.56250;794.6119;5.543373;40.00176;60.01915;.003948811
77.67082;795.6964;5.542868;39.98490;59.98601;.004462728
77.77918;796.7788;5.542504;39.99700;59.98415;.004634530
77.88750;797.8637;5.542227;39.99741;60.01261;.004357627
77.99584;798.9493;5.541719;40.00160;60.00176;.004247693
78.10416;800.0328;5.541298;40.00505;59.99800;.004179800
78.21250;801.1192;5.541380;40.03010;60.00919;.003906020
78.32082;802.2029;5.541416;39.98828;60.02280;.004136998
78.42918;803.2862;5.540876;40.00540;60.00649;.004124350
78.53750;804.3658;5.540194;39.98429;60.00840;.004053394
78.64584;805.4514;5.540313;40.00311;59.98911;.003908733
78.75416;806.5362;5.539820;40.00366;59.99319;.003859520
78.86250;807.6184;5.539571;39.98478;60.01287;.003390086
78.97082;808.7028;5.539470;40.02065;59.96344;.003069412
79.07918;809.7875;5.539684;40.00224;60.01416;.003354918
79.18750;810.8705;5.538516;40.01442;60.02490;.003464215
79.29582;811.9535;5.538734;39.98541;60.02163;.003759275
79.40418;813.0374;5.538538;40.00712;59.97690;.004261556
79.51250;814.1197;5.538067;40.01040;59.98756;.004775407
79.62084;815.2051;5.537762;39.99435;59.97747;.004766259
79.72916;816.2859;5.537444;39.98699;59.97982;.004959225
79.83750;817.3728;5.537192;39.98544;59.97099;.004927412
79.94582;818.4584;5.536670;40.02029;59.98707;.004713390
80.05418;819.5418;5.536334;39.97515;59.98500;.004505386
80.16250;820.6225;5.536082;39.96553;59.98206;.004366803
80.27084;821.7120;5.535781;40.01188;60.01486;.004436218
80.37916;822.7978;5.535598;39.98683;59.98516;.004487520
80.48750;823.8812;5.535406;39.99619;59.99215;.004660551
80.59582;824.9624;5.534905;40.00792;60.02901;.004979346
80.70418;826.0458;5.534371;39.98632;59.98438;.005380359
80.81250;827.1292;5.534043;40.00895;60.02607;.005995105
80.92082;828.2140;5.533666;39.96606;60.01720;.006015557
81.02918;829.2985;5.533422;40.00128;60.03328;.005491742
81.13750;830.3828;5.532800;40.01680;60.00476;.005172680
81.24584;831.4668;5.532150;40.02588;60.00130;.005043051
81.35416;832.5516;5.531862;40.01766;60.00320;.005096770
81.46250;833.6340;5.532246;39.98710;59.98721;.005234270
81.57082;834.7207;5.531704;39.98790;59.99878;.005471862
81.67918;835.8030;5.531202;39.99454;60.00429;.005956320
81.78750;836.8853;5.530674;39.99490;59.98896;.007143960
81.89584;837.9699;5.530074;40.03537;60.02566;.008385590
82.00416;839.0528;5.529572;40.00886;59.97440;.008489869
82.11250;840.1337;5.529051;39.97693;59.97283;.008676506
82.22082;841.2172;5.527976;39.97222;60.02774;.009392516
82.32918;842.3012;5.527332;39.98224;60.01780;0.01004352
82.43750;843.3840;5.526987;40.00367;60.01032;0.01049980
82.54582;844.4679;5.526458;39.98274;59.99211;0.01093278
82.65418;845.5462;5.525012;40.00539;60.00838;0.01140190
82.76250;846.6272;5.524243;40.01179;60.02586;0.01235375
82.87084;847.7148;5.523687;40.00640;60.01929;0.01313984
82.97916;848.7991;5.522838;40.00312;59.98611;0.01339164
83.08750;849.8859;5.521656;40.00980;60.04421;0.01337597
83.19582;850.9684;5.520406;40.01256;60.00310;0.01370435
83.30418;852.0526;5.519663;39.99312;60.00101;0.01446360
83.41250;853.1356;5.518972;39.98269;60.00650;0.01534104
83.52084;854.2212;5.517763;39.99228;59.99275;0.01617769
83.62916;855.3055;5.516771;39.98787;59.99618;0.01691537
83.73750;856.3891;5.515392;39.99671;60.01843;0.01751656
83.84582;857.4734;5.513821;39.99615;60.00255;0.01828228
83.95418;858.5578;5.512298;40.03087;60.01032;0.01868353
84.06250;859.6405;5.511204;39.98748;60.00818;0.01909628
84.17082;860.7255;5.510403;40.01075;60.02254;0.01944585
84.27918;861.8116;5.508790;40.00267;59.95980;0.01958247
84.38750;862.9068;5.507145;39.99442;59.98887;0.02023244
84.49584;863.9820;5.505842;39.97350;59.99164;0.02111483
84.60416;865.0609;5.504162;39.98278;59.99100;0.02214398
84.71250;866.1438;5.502906;39.97581;59.99510;0.02280218
84.82082;867.2259;5.501068;39.95092;60.00441;0.02284540
84.92918;868.3108;5.499574;39.99226;59.99722;0.02316406
85.03750;869.3951;5.497698;39.95938;59.99376;0.02351308
85.14584;870.4812;5.495871;40.01242;60.03030;0.02446321
85.25416;871.5650;5.494746;39.99725;60.00549;0.02454246
85.36250;872.6486;5.492925;40.01668;59.96586;0.02476447
85.47082;873.7332;5.490832;39.99217;60.00248;0.02514856
85.57918;874.8153;5.488974;40.00306;60.00928;0.02538009
85.68750;875.9020;5.487470;40.02334;60.01865;0.02513310
85.79582;876.9856;5.485580;40.00159;60.02218;0.02471974
85.90418;878.0720;5.483564;39.96716;60.00791;0.02404080
86.01250;879.1564;5.481860;40.01772;60.00400;0.02322371
86.12084;880.2400;5.481572;40.00062;60.00668;0.02267916
86.22916;881.3222;5.478962;39.99301;60.02156;0.02146895
86.33750;882.4046;5.477254;39.99434;59.99604;0.02037377
86.44582;883.4884;5.476016;39.98125;59.99702;0.01956194
86.55418;884.5711;5.474584;39.99580;60.00621;0.01898061
86.66250;885.6547;5.473581;40.00625;59.97645;0.01771873
86.77084;886.7394;5.472322;40.00842;59.99746;0.01653100
86.87916;887.8189;5.471020;40.01402;59.99986;0.01597909
86.98750;888.9022;5.469899;40.00331;59.97198;0.01508433
87.09582;889.9848;5.468848;40.05642;60.00102;0.01416242
87.20418;891.0691;5.468222;40.00125;60.00033;0.01319650
87.31250;892.1506;5.466969;39.98076;60.01132;0.01260157
87.42082;893.2371;5.466172;40.02090;60.01238;0.01208448
87.52918;894.3228;5.465632;39.98472;60.00622;0.01119948
87.63750;895.4078;5.464952;39.99931;59.97289;0.01036011
87.74584;896.4901;5.463642;39.98676;60.00564;.009385906
87.85416;897.5762;5.463028;40.00047;60.01956;.008509508
87.96250;898.6602;5.462700;39.97880;60.01566;.007710834
88.07082;899.7442;5.462421;39.98941;60.00347;.006661772
88.17918;900.8269;5.461837;39.99228;59.99848;.005611368
88.28750;901.9094;5.461250;39.99318;59.97884;.004839316
88.39584;902.9952;5.461199;39.98752;59.98826;.003991911
88.50416;904.0814;5.460820;39.97163;59.97974;.002888799
88.61250;905.1642;5.460491;39.98509;60.01270;.001663105
88.72082;906.2504;5.460481;40.02517;60.01620;.001333213
88.82918;907.3356;5.460710;40.00300;60.01006;.001486872
88.93750;908.4181;5.460867;40.01000;59.99604;.001282593
89.04582;909.4995;5.460900;40.00576;59.99586;9.59707E-4
89.15418;910.5858;5.460510;39.99889;60.01550;8.75310E-4
89.26250;911.6718;5.459661;40.00628;60.00928;7.31471E-4
89.37084;912.7553;5.460118;39.98138;60.00113;7.40891E-4
89.47916;913.8391;5.460366;40.02909;59.98930;2.49167E-4
89.58750;914.9215;5.460502;39.99953;59.97495;-3.4788E-4
89.69582;916.0071;5.460615;39.97948;59.97949;-3.6601E-4
89.80418;917.0909;5.460304;40.01675;59.99842;8.38381E-4
89.91250;918.1712;5.460243;40.00466;60.00222;.001387596
90.02084;919.2558;5.460355;39.98174;59.99982;.001512539
90.12916;920.3394;5.460015;39.99402;60.00041;.001360184
90.23750;921.4232;5.459300;40.02263;60.01828;8.33095E-4
90.34582;922.5088;5.459750;39.98688;60.01278;1.27744E-4
90.45418;923.5891;5.459916;39.99090;59.97826;-4.9978E-4
90.56250;924.6722;5.459930;39.99355;60.00566;-1.3464E-3
90.67082;925.7566;5.460152;40.00015;60.00402;-2.4461E-3
90.77918;926.8400;5.460188;40.00757;59.99534;-2.2532E-3
90.88750;927.9266;5.460835;39.99800;59.97106;-3.5943E-3
90.99584;929.0090;5.460449;39.96884;59.99500;-2.8354E-3
91.10416;930.0931;5.461228;40.03339;59.97144;-2.3374E-3
91.21250;931.1766;5.460605;40.00508;60.00144;-2.5607E-3
91.32082;932.2606;5.463066;39.98832;60.00862;-2.5363E-3
91.42918;933.3422;5.460786;39.98917;60.01790;-3.2570E-3
91.53750;934.4241;5.461238;40.00814;60.01389;-3.3071E-3
91.64584;935.5109;5.461932;39.98498;59.99722;-3.2751E-3
91.75416;936.5972;5.462105;39.99140;59.99397;-2.5429E-3
91.86250;937.6818;5.462942;40.02216;59.99864;-2.4536E-3
91.97082;938.7648;5.462982;40.02611;59.99299;-1.5898E-3
92.07918;939.8468;5.462748;40.01707;60.01282;-3.8985E-4
92.18750;940.9320;5.462720;40.00302;60.01309;3.48547E-4
92.29582;942.0175;5.462029;40.03222;60.02846;9.19547E-4
92.40418;943.1003;5.462159;40.00424;60.02282;.001245444
92.51250;944.1834;5.462512;40.00855;60.00297;7.99564E-4
92.62084;945.2716;5.462466;39.98189;60.02355;1.70843E-4
92.70418;946.1036;5.462182;40.01875;59.98154;-7.2548E-4