File: charts/20230727/TRANSFORM/TGA/ZCFA.txt
0.001533333;22.98286;6.599860;40.00727;60.01988;0.05500293
0.1041666;23.04120;6.598536;39.99969;59.97309;0.05511094
0.2125000;23.29251;6.596332;40.01587;59.97060;0.05545282
0.3208333;23.75196;6.594562;39.97124;59.98752;0.05590518
0.4291667;24.40618;6.591922;40.00616;60.00360;0.05639843
0.5375000;25.22216;6.589458;40.01748;59.99430;0.05711570
0.6458332;26.15512;6.585926;40.01505;59.98613;0.05855141
0.7541666;27.16508;6.581711;39.99109;59.99768;0.06002246
0.8625000;28.22460;6.577508;39.96096;60.00111;0.06158222
0.9708334;29.30784;6.572694;39.97160;59.99434;0.06603400
1.079166;30.39606;6.567636;39.97341;60.01602;0.06953116
1.187500;31.48072;6.562702;40.01744;59.98860;0.07235724
1.295834;32.55761;6.557051;39.98365;60.02930;0.07434045
1.404167;33.62703;6.551870;40.01930;59.96563;0.07566118
1.512500;34.68484;6.546430;39.99874;60.03422;0.07625266
1.620833;35.73393;6.541320;39.97087;60.01534;0.07622772
1.729166;36.77908;6.535924;40.01141;59.99898;0.07571284
1.837500;37.81866;6.530868;39.96853;59.99132;0.07485084
1.945834;38.85994;6.525839;39.99237;59.98030;0.07372964
2.054166;39.89946;6.520844;39.99675;60.02564;0.07254179
2.162500;40.93780;6.515957;39.98987;59.97460;0.07121186
2.270833;41.97828;6.511112;39.99846;59.99690;0.07002253
2.379166;43.02196;6.506311;40.00500;60.00731;0.06876529
2.487500;44.06836;6.501669;40.00761;60.03153;0.06769370
2.595833;45.11146;6.497135;40.04074;59.99778;0.06678190
2.704166;46.16040;6.492395;39.99488;60.01344;0.06596618
2.812500;47.21378;6.488028;40.00124;60.00991;0.06537908
2.920834;48.26918;6.483443;40.00610;59.96534;0.06485650
3.029167;49.32631;6.478821;39.99148;60.01271;0.06442120
3.137500;50.38321;6.474410;40.01494;60.03148;0.06416178
3.245834;51.44350;6.469837;39.98310;59.98215;0.06395398
3.354167;52.50622;6.465419;40.00973;59.98719;0.06378926
3.462500;53.56926;6.460837;39.97451;60.08726;0.06359226
3.570834;54.63701;6.456484;40.01678;60.01871;0.06361485
3.679166;55.70441;6.451994;40.00210;60.02216;0.06370174
3.787500;56.77410;6.447547;39.97778;60.00318;0.06383287
3.895833;57.84257;6.443010;39.99635;60.01148;0.06406695
4.004166;58.91426;6.438418;40.01930;60.02540;0.06443158
4.112500;59.99000;6.433945;39.98927;59.99207;0.06491538
4.220833;61.06562;6.429291;40.01033;60.00459;0.06556230
4.329167;62.14024;6.424668;40.00284;59.99824;0.06614130
4.437500;63.21625;6.419976;39.99683;60.00032;0.06700003
4.545833;64.29468;6.415176;40.00070;60.05100;0.06801864
4.654167;65.37308;6.410264;39.98052;59.98783;0.06915368
4.762500;66.45275;6.405402;40.00222;59.99716;0.07053906
4.870834;67.53557;6.400390;39.98067;60.03666;0.07199820
4.979166;68.61410;6.395124;39.99722;59.98910;0.07362866
5.087500;69.69412;6.389911;39.99287;59.99815;0.07548347
5.195833;70.77664;6.384476;40.00920;60.01018;0.07761944
5.304168;71.85595;6.378865;39.93968;60.02294;0.07999212
5.412500;72.93936;6.373172;39.98784;59.96813;0.08258156
5.520834;74.01992;6.367248;39.97144;59.99448;0.08542618
5.629166;75.10250;6.361020;40.01610;59.99596;0.08859176
5.737500;76.18470;6.354605;39.98048;59.97056;0.09201222
5.845832;77.26789;6.347887;40.04352;60.02240;0.09575438
5.954168;78.35186;6.340894;40.00012;60.01140;0.09978569
6.062500;79.43761;6.333706;40.01218;60.02765;0.1041851
6.170832;80.52114;6.326188;40.00202;59.99792;0.1086668
6.279168;81.60628;6.318320;39.98652;60.04360;0.1133249
6.387500;82.69012;6.309870;40.01389;59.99385;0.1181322
6.495834;83.77642;6.301326;39.97030;60.01472;0.1232005
6.604166;84.86031;6.292339;40.01970;59.99936;0.1282830
6.712500;85.94585;6.282976;39.98275;59.99001;0.1333477
6.820832;87.03098;6.273246;40.00168;59.96394;0.1382880
6.929168;88.11647;6.263169;39.99324;59.99079;0.1432482
7.037500;89.20092;6.252676;39.99303;59.97574;0.1479964
7.145834;90.28520;6.241820;39.96614;60.00635;0.1525780
7.254166;91.37286;6.230735;39.99778;59.98310;0.1568440
7.362500;92.45949;6.219264;40.01864;60.00964;0.1608062
7.470834;93.54156;6.207590;40.03159;59.98457;0.1643064
7.579168;94.62902;6.195664;39.98282;59.98506;0.1674553
7.687500;95.71405;6.183485;40.02206;60.01995;0.1700536
7.795832;96.80070;6.171057;40.01728;60.01391;0.1720048
7.904166;97.88676;6.158599;39.98162;59.96700;0.1733959
8.012500;98.97351;6.146020;39.97090;60.02465;0.1741877
8.120834;100.0592;6.133384;40.01970;59.99721;0.1743764
8.229168;101.1446;6.120915;40.01670;59.99610;0.1737911
8.337500;102.2323;6.108354;40.00069;60.00268;0.1725389
8.445832;103.3171;6.095932;40.00970;60.01826;0.1704983
8.554168;104.4053;6.083563;40.03429;60.00318;0.1677728
8.662500;105.4917;6.071700;39.99903;59.98915;0.1643344
8.770832;106.5785;6.059912;39.97985;59.97890;0.1600476
8.879166;107.6638;6.048535;39.99267;59.98220;0.1551639
8.987500;108.7505;6.037432;39.99902;59.98054;0.1497602
9.095834;109.8346;6.026874;39.98838;60.03881;0.1440034
9.204166;110.9223;6.016771;39.98708;60.02292;0.1379226
9.312500;112.0076;6.007068;40.00500;60.01042;0.1316150
9.420834;113.0922;5.997902;40.03454;60.00724;0.1251609
9.529166;114.1774;5.989170;39.99259;59.98718;0.1187888
9.637500;115.2644;5.980860;39.99578;59.96380;0.1125340
9.745834;116.3466;5.973072;39.98687;60.01824;0.1063642
9.854168;117.4320;5.965832;39.99467;59.99387;0.1005427
9.962500;118.5164;5.958768;40.00826;59.99534;0.09487970
10.07083;119.6007;5.952304;40.00290;59.97636;0.08942899
10.17917;120.6823;5.946135;40.03051;59.97105;0.08447747
10.28750;121.7681;5.940175;40.01604;60.01450;0.07990540
10.39583;122.8503;5.934708;39.99530;60.00686;0.07575782
10.50416;123.9367;5.929670;39.98031;60.02518;0.07160040
10.61250;125.0206;5.924554;39.97538;60.00950;0.06796064
10.72084;126.1046;5.919888;39.99937;60.00196;0.06466373
10.82916;127.1890;5.915405;40.03260;60.02144;0.06168115
10.93750;128.2719;5.911204;40.01063;59.97712;0.05891098
11.04584;129.3564;5.907130;39.98122;59.90469;0.05615014
11.15416;130.4422;5.903132;39.99756;59.98535;0.05366215
11.26250;131.5265;5.899426;39.98531;60.00935;0.05133520
11.37084;132.6092;5.895838;40.00786;60.00943;0.04926200
11.47917;133.6950;5.892556;40.00160;60.02537;0.04724344
11.58750;134.7787;5.889209;39.98150;59.98457;0.04530362
11.69583;135.8651;5.886044;39.99719;59.99770;0.04351240
11.80417;136.9464;5.882926;39.98958;59.98183;0.04190591
11.91250;138.0300;5.880024;39.97970;60.01276;0.04044628
12.02083;139.1160;5.877158;39.99162;60.00785;0.03901716
12.12916;140.2002;5.874586;40.00368;60.01288;0.03763532
12.23750;141.2839;5.871847;39.98852;59.92759;0.03641652
12.34584;142.3671;5.869259;40.01016;60.01658;0.03546051
12.45416;143.4502;5.866752;40.00847;60.00008;0.03441287
12.56250;144.5337;5.864353;39.97186;59.96655;0.03350545
12.67084;145.6154;5.862062;39.97943;60.01680;0.03247564
12.77916;146.7020;5.859592;39.99777;59.96957;0.03155580
12.88750;147.7866;5.857549;40.01648;59.99910;0.03064882
12.99583;148.8706;5.855350;40.03067;59.97961;0.02983632
13.10417;149.9524;5.853287;39.99498;60.03128;0.02908664
13.21250;151.0378;5.851216;40.00118;60.01040;0.02822717
13.32083;152.1219;5.849209;39.99725;60.00653;0.02761446
13.42917;153.2070;5.847307;39.98700;59.97786;0.02701072
13.53750;154.2899;5.845321;40.00268;60.06800;0.02635012
13.64583;155.3765;5.843580;40.01024;60.00202;0.02578600
13.75417;156.4584;5.841629;39.98662;60.04244;0.02523785
13.86250;157.5436;5.839884;40.00574;60.00594;0.02471554
13.97084;158.6291;5.838168;40.01271;60.00156;0.02418152
14.07916;159.7111;5.836407;39.99865;60.05341;0.02367558
14.18750;160.7964;5.834766;40.01983;60.01402;0.02313955
14.29584;161.8809;5.833094;40.03722;59.96550;0.02265458
14.40416;162.9644;5.831507;39.99150;60.01348;0.02222802
14.51250;164.0459;5.829946;39.97966;59.99788;0.02173230
14.62083;165.1320;5.828445;39.99478;60.01900;0.02141443
14.72917;166.2158;5.826932;39.97845;60.01607;0.02110422
14.83750;167.3014;5.825375;40.01514;60.00344;0.02075144
14.94583;168.3848;5.824040;40.00675;59.96848;0.02043834
15.05417;169.4674;5.822458;39.99710;59.97598;0.02007280
15.16250;170.5515;5.821041;39.98984;60.04678;0.01974965
15.27083;171.6329;5.819748;40.00287;60.02654;0.01938103
15.37917;172.7173;5.818312;40.01280;59.98578;0.01901823
15.48750;173.8010;5.816982;40.00388;60.01022;0.01860538
15.59584;174.8868;5.815538;40.01138;59.98992;0.01828786
15.70416;175.9710;5.814312;39.98761;60.00200;0.01815704
15.81250;177.0541;5.813056;40.03590;59.95879;0.01798400
15.92084;178.1375;5.811828;39.99631;60.00884;0.01775612
16.02917;179.2225;5.810530;40.02692;59.98489;0.01734235
16.13750;180.3050;5.809190;39.99424;59.99487;0.01708014
16.24583;181.3873;5.807994;39.99440;60.00451;0.01686231
16.35416;182.4704;5.806855;39.99172;60.01785;0.01658217
16.46250;183.5558;5.805822;40.01820;60.00560;0.01625395
16.57083;184.6364;5.804558;39.99575;60.00868;0.01596294
16.67917;185.7211;5.803464;39.99155;60.00068;0.01569720
16.78750;186.8036;5.802305;40.00661;59.98367;0.01557796
16.89584;187.8866;5.801161;40.03168;59.96414;0.01541591
17.00417;188.9701;5.800063;39.96216;59.96818;0.01513719
17.11250;190.0512;5.799058;39.99265;59.98414;0.01488622
17.22083;191.1349;5.797930;40.02220;60.03330;0.01467555
17.32916;192.2181;5.796974;40.00567;59.98746;0.01437124
17.43750;193.3020;5.795972;40.00580;59.95938;0.01409371
17.54584;194.3841;5.794880;39.98533;60.02040;0.01385940
17.65417;195.4675;5.793910;40.03400;60.00213;0.01364946
17.76250;196.5505;5.792886;39.99686;59.99156;0.01344452
17.87083;197.6328;5.792072;40.01596;60.01108;0.01333579
17.97916;198.7153;5.791074;40.01437;59.99900;0.01314005
18.08750;199.8002;5.790185;39.98874;60.01541;0.01300108
18.19583;200.8820;5.789201;40.02742;60.02162;0.01282125
18.30417;201.9646;5.788242;40.00460;59.99420;0.01269534
18.41250;203.0476;5.787420;40.02622;60.01376;0.01251294
18.52084;204.1295;5.786536;40.03530;59.99946;0.01232272
18.62917;205.2120;5.785630;39.99083;59.98952;0.01214916
18.73750;206.2960;5.784878;39.99968;60.01152;0.01206983
18.84583;207.3790;5.783914;40.01987;60.01334;0.01195692
18.95416;208.4623;5.783175;39.98386;60.00937;0.01188343
19.06250;209.5459;5.782268;39.99886;60.00928;0.01180177
19.17084;210.6268;5.781399;39.99800;60.00484;0.01167506
19.27917;211.7098;5.780602;40.00778;59.98316;0.01138804
19.38750;212.7910;5.779790;39.97528;60.02486;0.01114583
19.49583;213.8745;5.778980;39.99797;60.00222;0.01098034
19.60416;214.9601;5.778164;39.99716;59.99676;0.01081409
19.71250;216.0420;5.777418;39.96872;60.02676;0.01062054
19.82083;217.1241;5.776783;40.03164;59.97938;0.01048034
19.92917;218.2077;5.775938;40.00766;60.00459;0.01043893
20.03750;219.2920;5.775144;39.99570;59.98653;0.01042017
20.14584;220.3730;5.774617;40.00719;59.96629;0.01036116
20.25417;221.4572;5.773726;40.02238;60.01814;0.01036502
20.36250;222.5391;5.772982;39.99320;60.01070;0.01017686
20.47083;223.6214;5.772229;39.99516;59.99682;0.01010992
20.57916;224.7050;5.771602;40.01161;59.97799;0.01008926
20.68750;225.7861;5.770772;40.01566;60.01864;0.01000170
20.79584;226.8688;5.770203;40.02161;59.99380;.009886206
20.90417;227.9511;5.769415;40.00061;59.98770;.009882669
21.01250;229.0354;5.768726;39.99252;60.03624;.009823162
21.12083;230.1166;5.767981;40.02324;59.98954;.009791905
21.22916;231.1995;5.767322;40.00014;60.01118;.009692097
21.33750;232.2839;5.766551;39.98340;60.00278;.009521656
21.44583;233.3656;5.765996;40.00043;59.98884;.009310045
21.55417;234.4476;5.765192;39.97744;60.00235;.009135829
21.66250;235.5306;5.764753;39.99830;59.99720;.009007064
21.77084;236.6127;5.764039;39.99063;59.99566;.008895631
21.87917;237.6950;5.763430;40.01970;60.01057;.008814259
21.98750;238.7768;5.762737;40.00956;60.03570;.008803895
22.09583;239.8602;5.762144;39.99790;60.02789;.008867011
22.20416;240.9430;5.761542;40.00626;59.98118;.008782793
22.31250;242.0244;5.760880;39.99586;59.99641;.008787543
22.42084;243.1058;5.760229;40.01546;59.99711;.008769378
22.52917;244.1890;5.759566;40.01066;59.99166;.008704415
22.63750;245.2694;5.759148;40.01650;60.01342;.008659691
22.74583;246.3528;5.758342;40.00142;60.02737;.008563453
22.85416;247.4338;5.757758;40.00910;60.00709;.008474845
22.96250;248.5174;5.757185;40.00668;60.03480;.008297478
23.07083;249.5974;5.756539;39.97824;59.97014;.008221878
23.17917;250.6826;5.755991;40.02519;59.96975;.008182066
23.28750;251.7656;5.755334;39.99344;59.99014;.008120918
23.39584;252.8450;5.754974;39.97040;60.00282;.008203798
23.50417;253.9293;5.754343;39.98482;60.01144;.008192781
23.61250;255.0137;5.753585;39.98676;59.98300;.008141539
23.72083;256.0961;5.753118;40.00496;59.97034;.008072891
23.82916;257.1760;5.752388;40.00600;60.03746;.008008856
23.93750;258.2604;5.751826;39.97454;60.00546;.007834476
24.04584;259.3444;5.751363;39.95584;60.00030;.007690859
24.15417;260.4286;5.750854;40.01302;60.01797;.007613679
24.26250;261.5107;5.750282;39.99200;59.97660;.007581732
24.37083;262.5942;5.749818;40.00406;60.00710;.007610445
24.47916;263.6758;5.749270;39.98239;59.98069;.007648060
24.58750;264.7582;5.748624;39.97610;60.02382;.007607894
24.69583;265.8410;5.748064;40.01958;60.01332;.007498812
24.80417;266.9247;5.747540;39.95176;60.03246;.007374512
24.91250;268.0050;5.747027;39.98248;59.99796;.007313450
25.02084;269.0898;5.746545;39.98512;60.00574;.007159530
25.12917;270.1744;5.746040;40.00359;59.98906;.007122180
25.23750;271.2554;5.745576;39.99870;59.97839;.007011768
25.34583;272.3406;5.744947;39.98528;60.02394;.006969375
25.45416;273.4225;5.744608;40.00544;59.97787;.007012912
25.56250;274.5075;5.743950;40.03968;60.01129;.007034260
25.67084;275.5900;5.743620;39.98956;60.00440;.007109826
25.77917;276.6725;5.743096;40.01058;59.97799;.007116294
25.88750;277.7550;5.742506;40.00273;59.98162;.007083294
25.99583;278.8389;5.741991;40.00194;60.00766;.007066728
26.10416;279.9226;5.741496;40.00715;60.01076;.007077304
26.21250;281.0048;5.740906;40.00728;59.99687;.006986395
26.32084;282.0879;5.740582;39.99456;59.97978;.006858832
26.42916;283.1696;5.739936;39.99920;59.98074;.006804696
26.53750;284.2516;5.739600;39.99347;59.96485;.006735352
26.64584;285.3359;5.739092;40.01367;59.97278;.006640718
26.75417;286.4174;5.738570;40.02540;59.99129;.006724019
26.86250;287.5003;5.738038;40.00222;60.02330;.006578999
26.97083;288.5864;5.737588;40.00978;59.98622;.006661199
27.07916;289.6686;5.737284;40.02182;59.98218;.006692806
27.18750;290.7523;5.736616;40.01508;59.99651;.006759134
27.29584;291.8350;5.736422;39.99447;59.98290;.006845956
27.40417;292.9170;5.735640;40.00295;59.99080;.006921790
27.51250;293.9984;5.735128;39.99784;60.00280;.007015202
27.62083;295.0830;5.734711;40.01444;59.98648;.006886930
27.72916;296.1630;5.734116;39.99047;60.01385;.006948772
27.83750;297.2465;5.733646;40.02046;60.00649;.006826904
27.94584;298.3287;5.733242;40.02385;59.97851;.006811084
28.05416;299.4137;5.732792;39.98610;59.98276;.006786430
28.16250;300.4960;5.732292;39.98561;59.99078;.006722110
28.27084;301.5784;5.731750;40.00612;60.02549;.006705145
28.37917;302.6630;5.731329;40.02191;59.97902;.006619394
28.48750;303.7454;5.730805;40.00667;60.00742;.006582928
28.59583;304.8283;5.730390;40.00855;60.02640;.006512776
28.70416;305.9125;5.729828;39.99140;59.99262;.006434728
28.81250;306.9925;5.729526;40.00100;59.98758;.006428694
28.92084;308.0740;5.728959;39.95656;59.98187;.006385880
29.02917;309.1584;5.728520;40.01065;59.99934;.006400666
29.13750;310.2418;5.728081;39.99074;59.99193;.006435227
29.24583;311.3240;5.727640;40.03045;60.00989;.006460774
29.35416;312.4055;5.727218;40.01410;59.99602;.006382405
29.46250;313.4876;5.726666;40.02550;60.01004;.006336754
29.57084;314.5718;5.726170;40.02092;59.99624;.006296973
29.67916;315.6527;5.725776;39.98850;59.98480;.006180873
29.78750;316.7370;5.725328;39.98744;60.03132;.006083264
29.89584;317.8196;5.724960;39.99650;59.99809;.006044066
30.00417;318.9010;5.724414;40.00048;59.98658;.006014652
30.11250;319.9840;5.724186;39.99011;59.97992;.006015212
30.22083;321.0666;5.723624;39.99332;59.98800;.006025761
30.32916;322.1477;5.723213;39.99946;59.97894;.006073154
30.43750;323.2291;5.722711;39.96948;59.99143;.006021350
30.54584;324.3130;5.722271;39.95972;59.98238;.006114463
30.65417;325.3950;5.721952;39.99914;59.98975;.006029587
30.76250;326.4792;5.721424;40.00140;59.98962;.006118060
30.87083;327.5603;5.721081;40.03562;60.01370;.006119800
30.97916;328.6441;5.720578;39.98417;59.97967;.006196626
31.08750;329.7255;5.720219;39.98911;59.96624;.006135523
31.19584;330.8081;5.719683;39.97667;60.02906;.005975810
31.30416;331.8915;5.719269;39.96944;60.02965;.005959096
31.41250;332.9719;5.718735;40.00161;59.98040;.005809314
31.52084;334.0554;5.718444;40.00252;59.98974;.005669938
31.62917;335.1374;5.718021;39.99741;59.99730;.005539991
31.73750;336.2187;5.717622;40.03115;59.99699;.005494654
31.84583;337.3024;5.717235;39.99884;59.99408;.005475012
31.95416;338.3843;5.716851;39.96290;60.00006;.005463316
32.06250;339.4659;5.716629;40.00523;60.00509;.005453052
32.17084;340.5474;5.716050;39.99385;59.99957;.005427818
32.27917;341.6323;5.715706;39.99080;60.03604;.005421150
32.38750;342.7123;5.715410;39.95948;59.99974;.005454576
32.49584;343.7953;5.714892;39.98330;59.99365;.005435955
32.60417;344.8771;5.714640;40.01024;60.00812;.005397870
32.71250;345.9600;5.714110;39.99096;59.99633;.005446645
32.82084;347.0438;5.713784;40.02206;60.00528;.005494068
32.92916;348.1254;5.713438;40.00166;59.99429;.005555694
33.03750;349.2094;5.712957;40.00679;60.01802;.005627551
33.14583;350.2903;5.712724;39.98212;59.99171;.005499774
33.25416;351.3724;5.712146;40.01331;59.96298;.005544512
33.36250;352.4547;5.711740;40.00641;59.96954;.005482307
33.47083;353.5356;5.711324;40.01230;59.98728;.005414932
33.57916;354.6180;5.711154;40.01075;59.99150;.005428986
33.68750;355.7011;5.710653;39.97240;59.97924;.005312668
33.79584;356.7825;5.710320;39.98755;59.97796;.005272451
33.90417;357.8651;5.709911;40.00989;60.02484;.005251590
34.01250;358.9490;5.709370;39.97989;59.97451;.005344270
34.12084;360.0311;5.709126;39.99664;60.01753;.005419249
34.22917;361.1208;5.708762;39.99004;60.02278;.005416155
34.33750;362.2059;5.708394;39.98507;59.99192;.005333245
34.44584;363.2914;5.708078;40.01274;60.01550;.005290546
34.55416;364.3776;5.707492;40.02783;60.01730;.005288136
34.66250;365.4628;5.707187;39.98012;59.97336;.005295196
34.77083;366.5481;5.706865;40.01942;59.98800;.005252416
34.87916;367.6330;5.706489;40.03154;59.99220;.005129434
34.98750;368.7170;5.706145;40.00729;60.01168;.005050217
35.09583;369.8016;5.705630;40.00530;59.99936;.005121212
35.20416;370.8880;5.705344;40.01311;60.00559;.005161705
35.31250;371.9716;5.704988;39.98759;59.98032;.005132813
35.42084;373.0569;5.704649;39.98533;59.98248;.005052844
35.52917;374.1432;5.704253;40.02994;60.02604;.004988724
35.63750;375.2278;5.703918;39.99466;60.01400;.004968433
35.74584;376.3118;5.703562;39.99888;60.00852;.005067000
35.85417;377.3950;5.703246;40.02490;60.01248;.005150872
35.96250;378.4812;5.702864;40.03199;59.98675;.005011339
36.07084;379.5658;5.702528;40.01325;60.01108;.005016241
36.17916;380.6491;5.702094;39.98830;60.00350;.005004090
36.28750;381.7340;5.701648;39.97766;60.01740;.005004473
36.39583;382.8196;5.701509;40.01250;60.01054;.004975848
36.50416;383.9020;5.701016;40.00041;59.98168;.004882483
36.61250;384.9863;5.700740;39.99994;59.99454;.004827059
36.72083;386.0719;5.700336;40.02883;59.98714;.004810559
36.82916;387.1534;5.700006;39.97910;59.99912;.004917746
36.93750;388.2392;5.699660;40.02171;60.01724;.004899820
37.04584;389.3230;5.699358;40.01787;59.97646;.004868313
37.15417;390.4067;5.698959;39.99308;60.01220;.004810869
37.26250;391.4908;5.698589;39.98611;59.97076;.004794815
37.37084;392.5740;5.698262;40.02090;60.00441;.004793172
37.47917;393.6575;5.697906;39.98804;59.99789;.004742016
37.58750;394.7417;5.697688;39.99910;59.96709;.004633606
37.69584;395.8268;5.697250;39.97836;60.01174;.004619026
37.80416;396.9090;5.696930;39.97413;59.98723;.004593672
37.91250;397.9934;5.696582;40.01433;59.97884;.004635286
38.02083;399.0791;5.696304;39.97726;60.01565;.004657312
38.12916;400.1622;5.696030;40.01875;60.01949;.004575545
38.23750;401.2448;5.695652;39.98955;60.01154;.004498672
38.34583;402.3290;5.695211;39.98267;59.99726;.004502520
38.45416;403.4115;5.694955;39.99097;59.97170;.004584070
38.56250;404.4966;5.694648;40.00515;60.01916;.004626213
38.67084;405.5808;5.694390;40.00598;59.98524;.004602432
38.77917;406.6642;5.693980;40.01355;60.02373;.004617940
38.88750;407.7482;5.693625;39.99320;60.01910;.004686698
38.99584;408.8306;5.693350;39.99795;59.97761;.004714104
39.10417;409.9156;5.692992;39.98876;59.98416;.004706139
39.21250;410.9996;5.692654;40.00230;60.01406;.004695917
39.32084;412.0816;5.692304;40.01544;60.00738;.004619104
39.42916;413.1656;5.691968;39.97540;60.01726;.004668831
39.53750;414.2507;5.691650;39.96250;59.96590;.004711436
39.64583;415.3332;5.691257;40.04335;59.99032;.004681450
39.75416;416.4184;5.690956;40.00962;60.00750;.004595291
39.86250;417.5000;5.690575;40.01921;60.02332;.004525032
39.97083;418.5842;5.690302;39.99883;60.01429;.004416548
40.07916;419.6710;5.690020;40.00474;60.00649;.004383598
40.18750;420.7526;5.689711;39.99996;60.00590;.004477539
40.29584;421.8370;5.689363;39.99054;59.99800;.004466328
40.40417;422.9213;5.689144;39.99940;60.00210;.004629672
40.51250;424.0060;5.688760;39.98848;59.97649;.004746562
40.62084;425.0897;5.688303;40.00586;59.97274;.004782600
40.72917;426.1730;5.687971;40.00381;60.00537;.004765676
40.83750;427.2564;5.687622;39.97119;59.99322;.004823172
40.94584;428.3400;5.687320;39.99931;59.97250;.004767974
41.05416;429.4226;5.687068;39.99841;59.99406;.004793734
41.16250;430.5070;5.686669;39.99488;59.99257;.004809848
41.27083;431.5910;5.686318;40.03010;60.01293;.004839269
41.37916;432.6733;5.685948;39.99414;60.00390;.004783574
41.48750;433.7568;5.685564;39.97350;59.99062;.004810600
41.59583;434.8438;5.685320;40.01960;59.99792;.004730648
41.70416;435.9269;5.684850;39.97771;60.02119;.004564880
41.81250;437.0098;5.684648;39.97902;59.99718;.004495220
41.92084;438.0928;5.684246;40.01863;59.97037;.004474850
42.02917;439.1784;5.683962;39.99880;59.94910;.004406425
42.13750;440.2613;5.683732;39.98545;60.00396;.004534645
42.24584;441.3454;5.683328;39.98431;59.99688;.004799481
42.35417;442.4307;5.683093;39.99956;60.01616;.004866970
42.46250;443.5135;5.682856;39.98570;60.00694;.004821174
42.57084;444.5972;5.682324;40.02736;59.99100;.004760224
42.67916;445.6804;5.681796;39.98930;59.99786;.004515762
42.78750;446.7632;5.681526;39.99738;60.01298;.004341078
42.89583;447.8486;5.681342;40.01220;59.99463;.004058650
43.00416;448.9320;5.680985;40.02631;60.00552;.003842777
43.11250;450.0171;5.680862;39.97520;59.97752;.003914980
43.22083;451.1011;5.680514;40.00962;60.00962;.004368204
43.32916;452.1856;5.680340;40.03266;59.99460;.004858624
43.43750;453.2709;5.680016;40.00064;60.00772;.005102171
43.54584;454.3524;5.679511;40.00670;60.00401;.005262997
43.65417;455.4383;5.678989;40.00284;59.98152;.005186586
43.76250;456.5204;5.678486;39.98962;59.96612;.005085602
43.87084;457.6044;5.678234;39.98179;60.02312;.004852526
43.97917;458.6874;5.678000;39.97639;59.98658;.004559614
44.08750;459.7724;5.677832;40.00750;60.01407;.004380988
44.19584;460.8568;5.677294;39.99652;60.00530;.004257040
44.30416;461.9404;5.677129;40.00105;59.98462;.004318428
44.41250;463.0230;5.676640;39.98870;60.07344;.004450498
44.52083;464.1087;5.676372;40.00418;59.98731;.004538478
44.62916;465.1955;5.676141;39.99514;60.00678;.004470996
44.73750;466.2783;5.675842;39.99168;60.03176;.004535083
44.84583;467.3636;5.675489;39.98233;60.00514;.004582714
44.95416;468.4456;5.675076;40.00820;59.99978;.004747681
45.06250;469.5333;5.674820;40.00878;59.96401;.004815006
45.17084;470.6162;5.674449;39.99832;60.00554;.004884910
45.27917;471.7010;5.674072;40.00537;59.98332;.004928926
45.38750;472.7866;5.673722;40.01272;59.98839;.004919828
45.49584;473.8692;5.673435;40.01350;59.99294;.004787528
45.60417;474.9536;5.672992;39.96619;60.01396;.004701176
45.71250;476.0396;5.672610;39.99082;60.01334;.004517850
45.82084;477.1222;5.672363;39.98539;60.02508;.004414842
45.92916;478.2072;5.672254;39.97160;60.00453;.004368424
46.03750;479.2903;5.671724;39.99721;60.01262;.004298172
46.14583;480.3748;5.671470;40.00010;60.00002;.004306366
46.25416;481.4590;5.671178;39.98774;59.96368;.004367428
46.36250;482.5440;5.670836;39.99913;60.01641;.004481410
46.47083;483.6281;5.670515;39.99319;60.00640;.004468426
46.57916;484.7097;5.670220;40.00546;60.01798;.004402319
46.68750;485.7964;5.669859;40.00178;60.00154;.004291179
46.79584;486.8794;5.669566;39.98824;59.97718;.004086230
46.90417;487.9632;5.669169;39.98045;60.00332;.004035178
47.01250;489.0482;5.669060;39.97432;60.02252;.004022531
47.12084;490.1310;5.668809;39.98628;60.00190;.003953591
47.22917;491.2153;5.668545;40.01881;59.98524;.004042958
47.33750;492.2994;5.668157;39.99970;60.02307;.004167127
47.44584;493.3832;5.667760;39.98286;59.99462;.004445910
47.55416;494.4675;5.667566;40.00606;59.99652;.004598508
47.66250;495.5504;5.667163;39.99262;59.96820;.004722464
47.77083;496.6353;5.666892;40.00628;60.01861;.004756082
47.87916;497.7201;5.666515;39.99820;60.00522;.004710426
47.98750;498.8039;5.666213;40.01513;59.98080;.004845890
48.09583;499.8870;5.665782;40.00575;59.98922;.004810743
48.20416;500.9708;5.665484;39.98015;60.01429;.004710574
48.31250;502.0550;5.665190;40.00966;59.99821;.004610784
48.42084;503.1394;5.664724;39.98808;59.98350;.004585530
48.52917;504.2242;5.664458;39.97402;59.98202;.004662426
48.63750;505.3097;5.664220;40.01082;60.00154;.004685078
48.74584;506.3932;5.663874;40.00856;60.01250;.004652030
48.85417;507.4773;5.663524;39.98709;60.03496;.004656854
48.96250;508.5613;5.663116;39.97143;60.00906;.004740970
49.07084;509.6453;5.662773;40.00581;59.98715;.004823227
49.17916;510.7270;5.662527;39.99000;60.00467;.004878807
49.28750;511.8124;5.662180;39.98894;60.06174;.004777820
49.39583;512.8980;5.661720;39.97174;60.01334;.004710460
49.50416;513.9812;5.661378;39.99586;59.98715;.004726998
49.61250;515.0640;5.661039;40.01878;59.97783;.004744126
49.72083;516.1494;5.660780;39.98026;60.00068;.004677903
49.82916;517.2337;5.660414;39.97324;59.99519;.004700168
49.93750;518.3165;5.660128;40.01389;59.98255;.004872122
50.04584;519.4040;5.659742;39.99776;59.96980;.005029498
50.15417;520.4874;5.659463;40.00254;60.00586;.005051663
50.26250;521.5705;5.659036;39.99004;60.00614;.005079188
50.37084;522.6534;5.658630;40.02306;60.02710;.005067696
50.47917;523.7382;5.658188;39.99165;60.00015;.005034426
50.58750;524.8228;5.657926;39.98389;59.98054;.005060154
50.69584;525.9064;5.657630;40.00813;60.00180;.005001969
50.80416;526.9887;5.657246;39.98070;59.99024;.005005545
50.91250;528.0746;5.656868;39.98953;60.00228;.005013842
51.02083;529.1599;5.656518;40.00302;60.00641;.005136662
51.12916;530.2432;5.656055;39.98497;60.04748;.005181389
51.23750;531.3246;5.655717;40.01198;59.98648;.005222194
51.34583;532.4106;5.655406;40.00482;59.98355;.005273110
51.45417;533.4946;5.655039;40.02843;59.99385;.005228836
51.56250;534.5782;5.654642;40.01806;59.98829;.005266650
51.67083;535.6630;5.654258;39.98456;59.99972;.005292656
51.77917;536.7448;5.653828;39.99348;59.98328;.005352950
51.88750;537.8312;5.653549;39.98496;59.99744;.005484516
51.99584;538.9156;5.653055;40.00184;59.99810;.005586426
52.10417;539.9994;5.652756;39.99706;60.01410;.005749657
52.21250;541.0822;5.652365;39.98884;60.01328;.005811280
52.32084;542.1666;5.651757;39.99806;60.00610;.005919180
52.42916;543.2492;5.651372;39.99288;59.98386;.006112422
52.53750;544.3342;5.650907;40.01498;59.99956;.006457632
52.64582;545.4182;5.650576;39.98012;60.00750;.006689589
52.75416;546.5019;5.650255;39.96090;59.99101;.006842034
52.86250;547.5889;5.649510;40.00908;60.00317;.007110257
52.97082;548.6714;5.648914;39.99544;59.99648;.007325085
53.07918;549.7564;5.648442;40.02289;59.97338;.007669612
53.18750;550.8418;5.647908;39.98770;59.96931;.007895210
53.29582;551.9243;5.647338;39.98636;60.01526;.007947663
53.40418;553.0101;5.646805;39.97424;60.02174;.008090458
53.51250;554.0918;5.646068;40.02039;59.98936;.008270038
53.62084;555.1757;5.645500;39.97410;60.00791;.008466705
53.72918;556.2610;5.644947;40.00647;60.00310;.008603528
53.83750;557.3443;5.644459;40.04680;60.03171;.008656772
53.94584;558.4273;5.643781;39.99187;60.01513;.008670207
54.05416;559.5110;5.643110;40.00617;60.00264;.008786218
54.16250;560.5934;5.642446;39.99747;60.00118;.008984222
54.27082;561.6778;5.641866;39.97122;59.98860;.009066239
54.37916;562.7618;5.641176;39.98619;60.01760;.008949020
54.48750;563.8462;5.640590;40.00106;59.95970;.008982509
54.59582;564.9321;5.639776;40.00122;60.02636;.008912445
54.70418;566.0160;5.639249;39.98800;59.99415;.008840489
54.81250;567.1020;5.638774;40.00720;60.00430;.008589660
54.92082;568.1862;5.637908;39.99400;60.01036;.008305121
55.02918;569.2685;5.637375;40.00928;60.01643;.008056118
55.13750;570.3542;5.636796;40.01279;59.98692;.007916830
55.24584;571.4368;5.636314;40.01972;60.01568;.007784326
55.35418;572.5230;5.635746;39.99126;59.97644;.007451538
55.46250;573.6056;5.635180;39.98287;60.00932;.007199922
55.57084;574.6908;5.634644;40.02516;60.01470;.006914720
55.67916;575.7747;5.634161;40.00340;60.00476;.006720975
55.78750;576.8610;5.633679;39.99582;60.03910;.006540938
55.89582;577.9451;5.633274;40.01824;59.99269;.006172458
56.00416;579.0280;5.632930;40.01055;60.00196;.005738964
56.11250;580.1143;5.632384;40.01192;59.95770;.005391552
56.22082;581.1982;5.631954;40.00122;59.96137;.005003710
56.32918;582.2822;5.631693;40.01440;60.01632;.004723921
56.43750;583.3650;5.631428;40.00147;59.99150;.004390650
56.54582;584.4501;5.631141;40.00324;60.00874;.004050766
56.65418;585.5343;5.630874;40.00415;60.00972;.003764781
56.76250;586.6176;5.630543;39.95016;60.00068;.003691911
56.87084;587.7010;5.630276;39.98906;60.01020;.003674924
56.97918;588.7852;5.629992;39.98967;60.02446;.003589614
57.08750;589.8693;5.629863;40.03150;59.99230;.003476253
57.19584;590.9533;5.629579;40.01381;60.00152;.003470004
57.30416;592.0387;5.629338;40.00532;59.97450;.003376289
57.41250;593.1234;5.629044;40.00298;59.96357;.003275546
57.52082;594.2060;5.628902;39.99396;60.02840;.003166246
57.62916;595.2914;5.628532;40.00230;59.94669;.002968371
57.73750;596.3762;5.628438;40.00496;59.99946;.002842168
57.84582;597.4620;5.628213;40.03511;59.95981;.002762465
57.95418;598.5463;5.628074;39.98185;59.98472;.002697852
58.06250;599.6300;5.627850;39.99685;59.99584;.002683314
58.17082;600.7129;5.627656;40.00739;60.02405;.002714332
58.27918;601.7989;5.627451;39.98615;59.99122;.002745369
58.38750;602.8828;5.627280;40.05691;60.02392;.002764628
58.49584;603.9659;5.627039;40.01328;59.98881;.002664226
58.60418;605.0489;5.626846;39.98247;60.00436;.002569400
58.71250;606.1309;5.626750;40.00078;60.00328;.002430570
58.82084;607.2179;5.626494;39.98893;59.99114;.002272720
58.92916;608.3014;5.626368;40.00634;59.95002;.002118618
59.03750;609.3851;5.626201;39.99773;59.98638;.001922034
59.14582;610.4694;5.626034;40.01046;59.98092;.001731202
59.25416;611.5545;5.625924;40.02947;60.00036;.001433572
59.36250;612.6390;5.625787;40.02270;59.99449;.001292466
59.47082;613.7220;5.625771;40.02045;60.01690;.001184894
59.57918;614.8054;5.625669;39.97646;60.00913;.001070324
59.68750;615.8900;5.625686;39.97474;59.99986;9.62767E-4
59.79582;616.9728;5.625603;39.98530;59.98792;8.73077E-4
59.90418;618.0562;5.625418;40.03248;60.01464;7.92948E-4
60.01250;619.1404;5.625457;39.98000;60.00348;7.40266E-4
60.12084;620.2263;5.625400;39.99152;60.01395;8.48150E-4
60.22918;621.3112;5.625354;39.99380;59.99565;8.55888E-4
60.33750;622.3938;5.625360;40.01988;60.00986;6.77866E-4
60.44584;623.4774;5.625366;40.00368;59.99009;5.96661E-4
60.55416;624.5640;5.625118;39.98560;59.99666;5.12226E-4
60.66250;625.6479;5.625029;39.98665;59.97793;4.82339E-4
60.77082;626.7309;5.625171;40.00138;60.02766;5.04256E-4
60.87916;627.8148;5.625104;39.98678;60.00312;3.68416E-4
60.98750;628.8987;5.625240;39.97786;59.99494;2.04217E-4
61.09582;629.9813;5.625002;39.98444;59.96922;2.08598E-4
61.20418;631.0671;5.624886;40.01126;59.98918;3.21128E-4
61.31250;632.1516;5.625066;40.00056;60.03082;4.66031E-4
61.42082;633.2360;5.625092;40.00292;60.00086;4.64958E-4
61.52918;634.3190;5.624924;40.01462;59.97474;2.71294E-4
61.63750;635.4041;5.624976;40.03414;59.99130;3.27558E-4
61.74584;636.4878;5.624814;40.02843;59.98442;5.09139E-4
61.85418;637.5726;5.624812;40.04800;60.00590;4.78821E-4
61.96250;638.6536;5.624976;39.97485;59.99346;3.25486E-4
62.07084;639.7403;5.624770;39.98101;59.97375;3.02843E-4
62.17916;640.8244;5.624612;40.01024;59.97753;3.70482E-4
62.28750;641.9078;5.624780;39.97079;59.97525;4.28359E-4
62.39582;642.9934;5.624852;39.98374;60.00831;5.45773E-4
62.50416;644.0774;5.624718;40.04465;59.99630;5.36201E-4
62.61250;645.1599;5.624560;39.99506;60.02070;5.26001E-4
62.72082;646.2456;5.624598;39.98047;59.98689;5.41353E-4
62.82918;647.3274;5.624594;39.99174;59.99726;4.31902E-4
62.93750;648.4121;5.624489;39.98800;59.97226;3.98638E-4
63.04582;649.4950;5.624515;40.02110;60.00386;5.45313E-4
63.15418;650.5816;5.624590;39.99006;59.98593;8.70145E-4
63.26250;651.6663;5.624585;40.00270;59.99450;9.77923E-4
63.37084;652.7478;5.624446;40.01872;60.01530;9.05700E-4
63.47918;653.8328;5.624164;40.00238;59.97358;8.67006E-4
63.58750;654.9171;5.624006;40.01961;60.02456;9.07270E-4
63.69584;655.9997;5.624119;40.00424;60.02179;7.86257E-4
63.80416;657.0831;5.624122;40.01732;59.99164;5.77093E-4
63.91250;658.1684;5.624256;39.99426;59.98021;4.62642E-4
64.02084;659.2515;5.624028;39.99875;59.97670;6.62319E-4
64.12916;660.3389;5.623994;39.98688;59.98404;9.62480E-4
64.23750;661.4210;5.624006;40.00125;59.99348;.001040653
64.34582;662.5046;5.623858;39.99359;59.99430;.001081735
64.45418;663.5910;5.623594;39.97724;60.00193;.001115172
64.56250;664.6744;5.623547;40.01547;60.00590;.001182088
64.67082;665.7582;5.623762;39.97595;60.00428;.001179521
64.77918;666.8421;5.623576;40.00922;60.00276;.001157994
64.88750;667.9255;5.623342;40.00953;60.00850;.001189781
64.99584;669.0105;5.623325;40.01556;60.00579;.001400859
65.10416;670.0956;5.623276;39.98805;60.01451;.001578348
65.21250;671.1794;5.623144;39.99274;59.98597;.001688359
65.32082;672.2650;5.622979;39.98254;59.97851;.001888019
65.42918;673.3472;5.622830;39.98502;59.98418;.002137379
65.53750;674.4311;5.622882;39.97377;59.99220;.002281641
65.64584;675.5149;5.622461;40.02254;60.01453;.002397070
65.75416;676.5990;5.622216;39.98715;59.99097;.002328013
65.86250;677.6847;5.622014;40.00208;59.99948;.002258400
65.97082;678.7688;5.621987;40.00256;59.99034;.002102168
66.07918;679.8516;5.621800;39.98739;59.99459;.001806196
66.18750;680.9378;5.621750;39.98310;60.01281;.001759868
66.29582;682.0203;5.621493;39.98992;59.97982;.001943055
66.40418;683.1042;5.621562;39.99716;59.98056;.002105676
66.51250;684.1894;5.621420;39.99062;60.00496;.002237492
66.62084;685.2755;5.621234;40.00852;59.99230;.002618567
66.72916;686.3569;5.620834;40.02447;60.02544;.002967272
66.83750;687.4415;5.620750;39.99450;59.98334;.003298672
66.94582;688.5253;5.620550;39.99222;59.96960;.003511131
67.05418;689.6093;5.620247;40.00199;60.01118;.003551845
67.16250;690.6939;5.619968;39.99419;60.00224;.003622640
67.27084;691.7778;5.619778;40.01600;59.97175;.003885726
67.37916;692.8638;5.619362;39.98372;59.99934;.003977847
67.48750;693.9468;5.619143;40.00214;59.97399;.004028836
67.59582;695.0290;5.618870;40.02260;59.94399;.004161436
67.70418;696.1140;5.618461;39.99646;60.04179;.004296593
67.81250;697.1969;5.618270;39.95837;59.97178;.004418104
67.92082;698.2813;5.617890;40.00110;59.94739;.004728536
68.02918;699.3666;5.617566;39.99252;60.00772;.004928722
68.13750;700.4498;5.617256;39.98735;60.01387;.005085028
68.24584;701.5342;5.616866;40.00365;60.01285;.005275650
68.35416;702.6190;5.616409;39.98961;60.00778;.005344032
68.46250;703.7032;5.616019;39.99797;59.98187;.005418076
68.57082;704.7878;5.615623;40.00504;59.97330;.005561180
68.67918;705.8712;5.615270;39.97641;60.01399;.005557671
68.78750;706.9549;5.614860;39.98010;60.02270;.005386578
68.89584;708.0405;5.614463;40.01284;59.97907;.005233289
69.00416;709.1253;5.613966;40.00723;60.00520;.005186644
69.11250;710.2080;5.613570;39.99285;60.01195;.005187678
69.22082;711.2922;5.613374;40.02320;59.97348;.005143616
69.32918;712.3769;5.613046;39.99617;60.04761;.004957040
69.43750;713.4614;5.612695;39.99958;60.00830;.004783760
69.54582;714.5455;5.612295;40.01150;59.98555;.004793730
69.65418;715.6304;5.611874;39.99628;60.01189;.005037922
69.76250;716.7131;5.611638;40.01505;60.03190;.005221030
69.87084;717.7990;5.611374;39.98982;60.04404;.005310597
69.97916;718.8799;5.610990;40.00341;59.96461;.005367880
70.08750;719.9643;5.610452;39.97866;60.00805;.005352444
70.19582;721.0466;5.609957;40.00870;59.99617;.005317407
70.30418;722.1319;5.609582;40.00219;60.00551;.005271184
70.41250;723.2172;5.609245;40.00641;60.01101;.005046634
70.52084;724.2978;5.608951;40.02067;59.99264;.004675310
70.62916;725.3838;5.608730;39.96878;60.01594;.004321046
70.73750;726.4668;5.608250;39.98442;59.96132;.004113295
70.84582;727.5481;5.607924;39.99108;59.98032;.004046545
70.95418;728.6318;5.607722;40.00775;59.96334;.004094176
71.06250;729.7174;5.607520;40.00757;59.99187;.004073646
71.17082;730.8032;5.607270;39.99752;60.04568;.004038495
71.27918;731.8874;5.606956;40.00808;60.00375;.004145246
71.38750;732.9714;5.606576;39.98987;59.97218;.004561442
71.49584;734.0549;5.606283;39.97994;60.03316;.004845980
71.60416;735.1406;5.605941;39.99305;60.02825;.004957246
71.71250;736.2251;5.605605;40.01261;59.97135;.004680094
71.82082;737.3085;5.605174;40.01092;60.02526;.004329797
71.92918;738.3950;5.604741;39.97838;60.01344;.003915220
72.03750;739.4782;5.604434;39.98532;59.96793;.003462450
72.14584;740.5618;5.604400;40.00265;60.01495;.003004536
72.25416;741.6450;5.604176;40.01313;59.99520;.002573349
72.36250;742.7305;5.604049;39.99687;60.02422;.002423928
72.47082;743.8139;5.603882;39.99502;59.99250;.002559668
72.57918;744.8989;5.603752;39.99089;60.02454;.002648565
72.68750;745.9820;5.603584;40.03610;60.00281;.002657728
72.79582;747.0656;5.603301;40.02390;59.99936;.002873251
72.90418;748.1497;5.602982;39.98108;60.00000;.003183880
73.01250;749.2332;5.602965;39.99885;60.00723;.003204155
73.12084;750.3157;5.602856;40.00163;59.99532;.003104348
73.22916;751.3996;5.602406;39.99406;60.00320;.002910750
73.33750;752.4843;5.602009;40.00198;59.99714;.002610852
73.44582;753.5664;5.601998;40.02733;59.96620;.002509382
73.55418;754.6515;5.601868;40.00475;60.00376;.002104310
73.66250;755.7340;5.601753;39.99620;59.99150;.001798223
73.77084;756.8178;5.601650;40.01972;59.98536;.001848378
73.87916;757.9030;5.601487;39.97515;59.99694;.002206000
73.98750;758.9853;5.601516;39.96590;59.99560;.002535387
74.09582;760.0701;5.601270;40.00170;59.99756;.002703687
74.20418;761.1528;5.600844;40.02510;59.99934;.002668020
74.31250;762.2371;5.600551;40.01089;59.99841;.002563053
74.42082;763.3222;5.600457;39.98856;59.98229;.002365982
74.52918;764.4058;5.600266;39.99727;60.01218;.002009734
74.63750;765.4918;5.600322;40.01738;59.99778;.001569758
74.74584;766.5757;5.600175;40.01488;59.99238;.001379106
74.85416;767.6612;5.600069;40.01421;60.03480;.001611902
74.96250;768.7434;5.599926;40.03794;60.01239;.001784867
75.07082;769.8279;5.599905;40.00740;60.00762;.001941484
75.17918;770.9122;5.599732;40.02392;59.98722;.001896796
75.28750;771.9962;5.599468;40.00448;59.99750;.001854767
75.39584;773.0810;5.599305;39.97346;59.96755;.001793180
75.50416;774.1638;5.599240;40.00908;60.02883;.001656241
75.61250;775.2500;5.599170;39.96262;59.99141;.001432818
75.72082;776.3330;5.599070;39.98181;59.97200;.001235482
75.82918;777.4169;5.598980;39.95625;60.00054;.001359234
75.93750;778.5014;5.598928;39.98830;60.01223;.001551163
76.04582;779.5857;5.598794;40.01516;59.99814;.001700958
76.15418;780.6684;5.598726;40.03104;60.00994;.001754256
76.26250;781.7540;5.598440;40.00656;59.98410;.001910418
76.37084;782.8355;5.598332;40.01312;59.95974;.002094849
76.47916;783.9210;5.598190;40.01895;59.98990;.002136430
76.58750;785.0030;5.598144;39.99064;59.99837;.001875994
76.69582;786.0868;5.597854;40.00769;60.00109;.001597518
76.80418;787.1719;5.597740;39.98296;60.01104;.001629696
76.91250;788.2588;5.597568;39.99133;60.02372;.001831039
77.02084;789.3400;5.597720;39.99680;59.97790;.001913164
77.12916;790.4251;5.597582;40.00389;60.00141;.001958784
77.23750;791.5064;5.597320;39.97317;59.99750;.002144666
77.34582;792.5891;5.597039;39.98568;60.00211;.002264455
77.45418;793.6731;5.596948;39.99942;59.99249;.002531008
77.56250;794.7587;5.596748;39.98080;59.96449;.002386260
77.67082;795.8430;5.596482;39.99415;59.99690;.002071106
77.77918;796.9266;5.596584;39.98710;59.98184;.001911845
77.88750;798.0100;5.596215;39.97335;59.99407;.001881539
77.99584;799.0935;5.596210;39.99283;60.00660;.002112947
78.10416;800.1781;5.596157;40.00746;60.00474;.002363445
78.21250;801.2618;5.595954;39.96920;59.99348;.002805756
78.32082;802.3464;5.595895;39.98971;59.98584;.003054813
78.42918;803.4302;5.595388;40.00020;60.00637;.003410214
78.53750;804.5120;5.595174;40.00606;60.01153;.003255878
78.64584;805.5966;5.594780;40.01884;59.98440;.002851586
78.75416;806.6809;5.594684;40.01855;60.01093;.002414388
78.86250;807.7644;5.594318;39.99852;59.96434;.002026098
78.97082;808.8476;5.594555;40.00672;59.99024;.001837449
79.07918;809.9311;5.594518;40.00592;59.99648;.001781628
79.18750;811.0166;5.594407;39.98436;60.02036;.002091187
79.29582;812.0997;5.594072;39.98341;60.00672;.002590824
79.40418;813.1850;5.593856;40.00478;59.99340;.003363031
79.51250;814.2691;5.593714;40.00990;59.99464;.003966644
79.62084;815.3535;5.593359;40.01587;59.98335;.004132424
79.72916;816.4382;5.592988;39.97717;60.00688;.004186378
79.83750;817.5222;5.592618;39.97685;60.01724;.004310011
79.94582;818.6064;5.592243;39.98566;59.99094;.004407910
80.05418;819.6910;5.592112;40.00996;59.99287;.004333683
80.16250;820.7731;5.591804;40.00022;59.98176;.004232350
80.27084;821.8588;5.591461;40.00930;59.98736;.004292833
80.37916;822.9413;5.591091;39.99116;59.99207;.004451179
80.48750;824.0250;5.590797;40.00212;59.99521;.004662478
80.59582;825.1088;5.590490;40.01268;60.01455;.004734246
80.70418;826.1928;5.590089;40.00252;59.99209;.004810730
80.81250;827.2758;5.589766;40.00294;60.01160;.004984162
80.92082;828.3600;5.589481;39.96760;60.01620;.005145790
81.02918;829.4430;5.589120;39.98238;60.01372;.005371894
81.13750;830.5282;5.588762;40.01439;60.00725;.005593209
81.24584;831.6116;5.588265;39.97995;59.97637;.005820375
81.35416;832.6958;5.587894;40.01060;60.01521;.006310243
81.46250;833.7794;5.587392;40.00380;59.98555;.006909644
81.57082;834.8637;5.586968;40.02645;60.02998;.007236228
81.67918;835.9452;5.586465;40.00613;60.00562;.007490659
81.78750;837.0280;5.585834;39.99562;59.99678;.007791930
81.89584;838.1118;5.584918;40.00481;59.95396;.007669099
82.00416;839.1961;5.584730;39.99066;60.00484;.007447844
82.11250;840.2800;5.584010;39.99416;60.01508;.007255570
82.22082;841.3664;5.583516;39.99934;59.99658;.007275794
82.32918;842.4512;5.583215;39.99976;60.03076;.007264638
82.43750;843.5386;5.582714;39.97292;60.00154;.007719885
82.54582;844.6205;5.582171;39.99443;59.99790;.008201656
82.65418;845.7074;5.581296;40.01280;59.99795;.008977280
82.76250;846.7882;5.580808;39.99313;59.98958;.009650506
82.87084;847.8726;5.580142;39.98046;60.01370;0.01012250
82.97916;848.9553;5.579332;40.00310;60.01648;0.01045346
83.08750;850.0374;5.578362;39.94889;59.97496;0.01077894
83.19582;851.1204;5.577751;40.04450;60.00191;0.01128628
83.30418;852.2039;5.577020;39.99784;59.99651;0.01192020
83.41250;853.2872;5.576135;40.02524;60.04129;0.01249104
83.52084;854.3722;5.575146;39.96495;60.01199;0.01301920
83.62916;855.4569;5.574356;39.97219;59.99015;0.01351228
83.73750;856.5391;5.573132;40.02954;59.97020;0.01405089
83.84582;857.6219;5.572128;39.99813;59.97852;0.01443388
83.95418;858.7070;5.571075;40.02188;60.02276;0.01492529
84.06250;859.7912;5.570254;39.99450;60.02180;0.01539866
84.17082;860.8754;5.568984;40.04032;59.99582;0.01557322
84.27918;861.9634;5.567990;40.02500;60.01674;0.01591566
84.38750;863.0449;5.566482;39.97662;59.99654;0.01664999
84.49584;864.1339;5.565324;40.00485;60.03524;0.01742261
84.60416;865.2191;5.564347;39.99959;60.03420;0.01782628
84.71250;866.3090;5.563115;40.01050;60.01521;0.01811448
84.82082;867.3922;5.561452;39.97141;59.99000;0.01856502
84.92918;868.4747;5.560032;40.01906;60.00579;0.01935265
85.03750;869.5578;5.558796;39.98826;59.99058;0.01992394
85.14584;870.6418;5.557628;39.99164;59.96778;0.02025162
85.25416;871.7211;5.556004;40.00825;59.97600;0.02038188
85.36250;872.8051;5.554205;40.00261;59.99887;0.02076628
85.47082;873.8892;5.552906;39.99926;59.99620;0.02111371
85.57918;874.9719;5.551426;40.01676;59.98340;0.02131160
85.68750;876.0534;5.549937;39.98355;59.97742;0.02139816
85.79582;877.1371;5.548205;39.95691;60.00149;0.02137791
85.90418;878.2194;5.546832;39.99228;60.00713;0.02150797
86.01250;879.3161;5.545317;39.98244;60.00054;0.02139236
86.12084;880.4059;5.543564;40.00344;59.99139;0.02116225
86.22916;881.4796;5.542141;40.00264;60.00097;0.02074531
86.33750;882.5536;5.540654;40.01257;59.99321;0.02038838
86.44582;883.6344;5.539330;40.00648;60.00696;0.01979336
86.55418;884.7181;5.537945;39.98719;60.00639;0.01887303
86.66250;885.8014;5.536537;40.00794;60.00655;0.01804375
86.77084;886.8863;5.535204;39.99338;59.97790;0.01736559
86.87916;887.9704;5.533974;39.98708;60.00060;0.01673993
86.98750;889.0530;5.533015;39.97986;60.03408;0.01596718
87.09582;890.1376;5.531859;40.00034;59.99309;0.01515550
87.20418;891.2218;5.530720;40.01199;59.99956;0.01449306
87.31250;892.3082;5.529595;40.01340;60.01706;0.01354566
87.42082;893.3926;5.528726;40.00076;60.01949;0.01267657
87.52918;894.4766;5.527854;40.00676;60.00950;0.01161942
87.63750;895.5608;5.526924;39.99729;60.01723;0.01055844
87.74584;896.6418;5.526362;40.01040;59.95806;.009627485
87.85416;897.7258;5.525782;40.01248;60.02942;.008857466
87.96250;898.8132;5.525128;40.03144;60.02919;.008051801
88.07082;899.8995;5.524589;40.02202;60.00991;.007234421
88.17918;900.9812;5.524081;39.98478;59.98518;.006486194
88.28750;902.0656;5.523610;39.95696;59.98700;.005855810
88.39584;903.1466;5.523168;39.99242;59.97659;.005217404
88.50416;904.2242;5.522880;40.00640;59.96262;.004738678
88.61250;905.3047;5.522708;39.99957;59.96446;.004313758
88.72082;906.3888;5.522408;40.02970;59.97266;.003809133
88.82918;907.4718;5.522058;40.00408;60.01509;.003212050
88.93750;908.5580;5.521694;40.00464;59.96460;.002754631
89.04582;909.6453;5.521492;40.00448;59.98587;.002224226
89.15418;910.7301;5.521488;39.97273;59.99955;.001709534
89.26250;911.8134;5.521579;40.01230;59.98312;.001191073
89.37084;912.8988;5.521424;39.99926;60.01757;8.85947E-4
89.47916;913.9762;5.521429;40.03439;59.96196;9.55787E-4
89.58750;915.0648;5.521270;40.00366;60.00590;.001213669
89.69582;916.1522;5.521206;39.97880;59.99596;.001703558
89.80418;917.2394;5.521288;40.01391;59.97130;.002062306
89.91250;918.3245;5.520977;39.98456;60.02136;.002403148
90.02084;919.4078;5.520820;40.01106;59.99568;.002198976
90.12916;920.4910;5.520455;39.98347;59.99511;.001629508
90.23750;921.5759;5.520283;39.98928;60.01391;9.18327E-4
90.34582;922.6594;5.519929;39.98416;59.99169;2.56852E-4
90.45418;923.7431;5.520310;39.98644;59.99900;-4.6009E-4
90.56250;924.8278;5.520668;40.00866;59.97218;-1.0828E-3
90.67082;925.9125;5.520899;39.99997;60.00799;-1.3973E-3
90.77918;926.9950;5.520474;40.00022;59.98880;-1.2859E-3
90.88750;928.0795;5.520863;40.00125;60.00237;-7.9228E-4
90.99584;929.1651;5.520898;39.98912;60.00168;-3.1728E-4
91.10416;930.2511;5.520882;39.99153;60.00164;-2.4918E-4
91.21250;931.3353;5.520840;40.02760;60.01106;-3.5820E-4
91.32082;932.4194;5.520855;39.96406;59.99354;-8.3802E-6
91.42918;933.5019;5.520805;40.00422;59.97456;9.02224E-5
91.53750;934.5839;5.520926;39.96739;60.01885;1.12078E-5
91.64584;935.6659;5.520957;40.01508;59.98266;-1.5466E-4
91.75416;936.7504;5.520728;39.99368;59.99883;-2.9778E-4
91.86250;937.8356;5.520922;40.02294;60.02033;-3.8409E-4
91.97082;938.9191;5.520938;40.02164;60.01152;-3.3112E-4
92.07918;940.0025;5.520998;39.97778;59.98388;-3.1575E-4
92.18750;941.0866;5.521072;40.00046;59.97596;-2.0267E-4
92.29582;942.1655;5.521052;39.99276;59.98790;-1.3586E-4
92.40418;943.2499;5.520992;40.00286;59.96212;6.78791E-6
92.51250;944.3363;5.521041;39.99572;60.01962;2.63268E-4
92.62084;945.4168;5.520811;39.99056;59.99532;5.79837E-4
92.68750;946.0816;5.520899;40.00132;60.00451;7.09186E-4